acc,accuracy,average_response_time,avg_rt,background,bidi,browser_codename,browser_name,browser_version,canvas_backend,clock_backend,color_backend,compensation,congruencia,coordinates,correct,correct_resp_log,correct_resposta_curto,correct_resposta_long,correct_resposta_simples,count_bemvindo,count_bissec_temp,count_espera0,count_espera0_log,count_espera_curto,count_espera_long,count_estimulo,count_estimulo_curto,count_estimulo_log,count_estimulo_long,count_fim_log,count_fix,count_fix_curto,count_fix_log,count_fix_long,count_loop_curto,count_loop_log_1,count_loop_long,count_loop_simples,count_new_feedback_2,count_new_feedback_3,count_new_logger,count_new_logger_1,count_new_reset_feedback,count_new_sampler,count_new_sampler_1,count_new_sampler_2,count_new_sampler_3,count_new_sketchpad_6,count_osweb,count_pausa,count_resp_log,count_resposta_curto,count_resposta_long,count_resposta_simples,count_save,count_save2,count_seq_curto,count_seq_log_1,count_seq_long,count_seq_simples,date_startdate,date_startdateUTC,date_starttime,datetime,description,disable_garbage_collection,experiment_debug,experiment_parameters,experiment_path,experiment_pilot,experiment_taskname,experiment_taskversion,font_bold,font_family,font_italic,font_size,font_underline,foreground,form_clicks,fullscreen,height,jatosStudyResultId,jatosVersion,keyboard_backend,mouse_backend,opensesame_codename,opensesame_version,queryParams_batchId,queryParams_personalMultipleWorkerId,repeat_cycle,resp_corr,resp_corr_log,response,response_bemvindo,response_new_feedback_2,response_new_feedback_3,response_new_sampler,response_new_sampler_1,response_new_sampler_2,response_new_sampler_3,response_new_sketchpad_6,response_pausa,response_resp_log,response_resposta_curto,response_resposta_long,response_resposta_simples,response_time,response_time_bemvindo,response_time_new_feedback_2,response_time_new_feedback_3,response_time_new_sampler,response_time_new_sampler_1,response_time_new_sampler_2,response_time_new_sampler_3,response_time_new_sketchpad_6,response_time_pausa,response_time_resp_log,response_time_resposta_curto,response_time_resposta_long,response_time_resposta_simples,round_decimals,sampler_backend,screen_availableHeight,screen_availableWidth,screen_colorDepth,screen_height,screen_pixelDepth,screen_screenX,screen_screenY,screen_width,sessionid,sound_buf_size,sound_channels,sound_freq,sound_sample_size,start,subject_nr,subject_parity,system_os,tempo,tempo_log,time_bemvindo,time_espera0,time_espera0_log,time_espera_curto,time_espera_long,time_estimulo,time_estimulo_curto,time_estimulo_log,time_estimulo_long,time_fix,time_fix_curto,time_fix_log,time_fix_long,time_loop_curto,time_loop_log_1,time_loop_long,time_loop_simples,time_new_feedback_2,time_new_feedback_3,time_new_logger,time_new_logger_1,time_new_sampler,time_new_sampler_1,time_new_sampler_2,time_new_sampler_3,time_new_sketchpad_6,time_pausa,time_resp_log,time_resposta_curto,time_resposta_long,time_resposta_simples,time_save,time_save2,title,total_correct,total_response_time,total_responses,uniform_coordinates,width
100,100,10352,10352,black,no,Mozilla,Netscape,"5.0 (Windows NT 10.0; Win64; x64) AppleWebKit/537.36 (KHTML, like Gecko) Chrome/92.0.4515.131 Safari/537.36 Edg/92.0.902.73",psycho,psycho,psycho,0,curto,uniform,1,,1,,,0,0,,,0,,,0,,,0,,0,,,0,0,0,0,,,0,,,,,0,,0,0,,,0,,,,,0,,,,15-07-21,16-07-21,21:50:29,Sun Aug 15 2021 21:50:29 GMT-0300 (Horário Padrão de Brasília),The main experiment item,yes,0,0,/Users/marcelarruda/Documents/OpenSesame,0,0,0,no,mono,no,18,no,white,no,no,768,39690,3.6.1,psycho,psycho,osweb,1.3.13,2100,42485,0,q,,None,lalt,,,,,None,,lalt,,,q,,,533,2192,,,,,533,,2550,,,10352,,,2,psycho,1160,1920,24,1200,24,0,0,1920,1629075040449,1024,2,48000,-16,bissec_temp,0,even,Win32,500,,78,,,5856,,,5339,,,,4831,,,78,78,78,78,,,16749,,,,16216,,2271,,,5856,,,,,New experiment,1,10352,1,yes,1366
100,100,5227,5227,black,no,Mozilla,Netscape,"5.0 (Windows NT 10.0; Win64; x64) AppleWebKit/537.36 (KHTML, like Gecko) Chrome/92.0.4515.131 Safari/537.36 Edg/92.0.902.73",psycho,psycho,psycho,0,curto,uniform,1,,1,,,0,0,,,1,,,1,,,0,,1,,,0,0,0,0,,,1,,,,,1,,0,0,,,1,,,,,1,,,,15-07-21,16-07-21,21:50:29,Sun Aug 15 2021 21:50:29 GMT-0300 (Horário Padrão de Brasília),The main experiment item,yes,0,0,/Users/marcelarruda/Documents/OpenSesame,0,0,0,no,mono,no,18,no,white,no,no,768,39690,3.6.1,psycho,psycho,osweb,1.3.13,2100,42485,0,q,,None,lalt,,,,,None,,lalt,,,q,,,517,2192,,,,,517,,2550,,,102,,,2,psycho,1160,1920,24,1200,24,0,0,1920,1629075040449,1024,2,48000,-16,bissec_temp,0,even,Win32,500,,78,,,17783,,,17267,,,,16756,,,78,78,78,78,,,18419,,,,17900,,2271,,,17783,,,,,New experiment,2,10454,2,yes,1366
100,100,3689,3689,black,no,Mozilla,Netscape,"5.0 (Windows NT 10.0; Win64; x64) AppleWebKit/537.36 (KHTML, like Gecko) Chrome/92.0.4515.131 Safari/537.36 Edg/92.0.902.73",psycho,psycho,psycho,0,curto,uniform,1,,1,,,0,0,,,2,,,2,,,0,,2,,,0,0,0,0,,,2,,,,,2,,0,0,,,2,,,,,2,,,,15-07-21,16-07-21,21:50:29,Sun Aug 15 2021 21:50:29 GMT-0300 (Horário Padrão de Brasília),The main experiment item,yes,0,0,/Users/marcelarruda/Documents/OpenSesame,0,0,0,no,mono,no,18,no,white,no,no,768,39690,3.6.1,psycho,psycho,osweb,1.3.13,2100,42485,0,q,,None,lalt,,,,,None,,lalt,,,q,,,517,2192,,,,,517,,2550,,,612,,,2,psycho,1160,1920,24,1200,24,0,0,1920,1629075040449,1024,2,48000,-16,bissec_temp,0,even,Win32,500,,78,,,19435,,,18934,,,,18424,,,78,78,78,78,,,20569,,,,20052,,2271,,,19435,,,,,New experiment,3,11066,3,yes,1366
100,100,2969,2969,black,no,Mozilla,Netscape,"5.0 (Windows NT 10.0; Win64; x64) AppleWebKit/537.36 (KHTML, like Gecko) Chrome/92.0.4515.131 Safari/537.36 Edg/92.0.902.73",psycho,psycho,psycho,0,curto,uniform,1,,1,,,0,0,,,3,,,3,,,0,,3,,,0,0,0,0,,,3,,,,,3,,0,0,,,3,,,,,3,,,,15-07-21,16-07-21,21:50:29,Sun Aug 15 2021 21:50:29 GMT-0300 (Horário Padrão de Brasília),The main experiment item,yes,0,0,/Users/marcelarruda/Documents/OpenSesame,0,0,0,no,mono,no,18,no,white,no,no,768,39690,3.6.1,psycho,psycho,osweb,1.3.13,2100,42485,0,q,,None,lalt,,,,,None,,lalt,,,q,,,517,2192,,,,,517,,2550,,,809,,,2,psycho,1160,1920,24,1200,24,0,0,1920,1629075040449,1024,2,48000,-16,bissec_temp,0,even,Win32,500,,78,,,21603,,,21086,,,,20575,,,78,78,78,78,,,22939,,,,22420,,2271,,,21603,,,,,New experiment,4,11875,4,yes,1366
100,100,2413,2413,black,no,Mozilla,Netscape,"5.0 (Windows NT 10.0; Win64; x64) AppleWebKit/537.36 (KHTML, like Gecko) Chrome/92.0.4515.131 Safari/537.36 Edg/92.0.902.73",psycho,psycho,psycho,0,curto,uniform,1,,1,,,0,0,,,4,,,4,,,0,,4,,,0,0,0,0,,,4,,,,,4,,0,0,,,4,,,,,4,,,,15-07-21,16-07-21,21:50:29,Sun Aug 15 2021 21:50:29 GMT-0300 (Horário Padrão de Brasília),The main experiment item,yes,0,0,/Users/marcelarruda/Documents/OpenSesame,0,0,0,no,mono,no,18,no,white,no,no,768,39690,3.6.1,psycho,psycho,osweb,1.3.13,2100,42485,0,q,,None,lalt,,,,,None,,lalt,,,q,,,517,2192,,,,,517,,2550,,,192,,,2,psycho,1160,1920,24,1200,24,0,0,1920,1629075040449,1024,2,48000,-16,bissec_temp,0,even,Win32,500,,78,,,23972,,,23455,,,,22944,,,78,78,78,78,,,24689,,,,24172,,2271,,,23972,,,,,New experiment,5,12067,5,yes,1366
100,100,436,436,black,no,Mozilla,Netscape,"5.0 (Windows NT 10.0; Win64; x64) AppleWebKit/537.36 (KHTML, like Gecko) Chrome/92.0.4515.131 Safari/537.36 Edg/92.0.902.73",psycho,psycho,psycho,0,longo,uniform,1,,1,1,,0,0,,,4,0,,4,,0,0,,4,,0,0,0,0,0,0,,4,0,,,,4,0,0,0,,,4,0,,,,4,,0,,15-07-21,16-07-21,21:50:29,Sun Aug 15 2021 21:50:29 GMT-0300 (Horário Padrão de Brasília),The main experiment item,yes,0,0,/Users/marcelarruda/Documents/OpenSesame,0,0,0,no,mono,no,18,no,white,no,no,768,39690,3.6.1,psycho,psycho,osweb,1.3.13,2100,42485,0,p,,None,lalt,space,,,,None,None,lalt,,,q,p,,518,2192,3435,,,,517,518,2550,,,192,436,,2,psycho,1160,1920,24,1200,24,0,0,1920,1629075040449,1024,2,48000,-16,bissec_temp,0,even,Win32,2000,,78,,,23972,30661,,23455,,28659,,22944,,28149,78,78,78,78,24696,,24689,31629,,,24172,31111,2271,,,23972,30661,,,,New experiment,1,436,1,yes,1366
100,100,339,339,black,no,Mozilla,Netscape,"5.0 (Windows NT 10.0; Win64; x64) AppleWebKit/537.36 (KHTML, like Gecko) Chrome/92.0.4515.131 Safari/537.36 Edg/92.0.902.73",psycho,psycho,psycho,0,longo,uniform,1,,1,1,,0,0,,,4,1,,4,,1,0,,4,,1,0,0,0,0,0,,4,1,,,,4,1,0,0,,,4,1,,,,4,,1,,15-07-21,16-07-21,21:50:29,Sun Aug 15 2021 21:50:29 GMT-0300 (Horário Padrão de Brasília),The main experiment item,yes,0,0,/Users/marcelarruda/Documents/OpenSesame,0,0,0,no,mono,no,18,no,white,no,no,768,39690,3.6.1,psycho,psycho,osweb,1.3.13,2100,42485,0,p,,None,lalt,space,,,,None,None,lalt,,,q,p,,500,2192,3435,,,,517,500,2550,,,192,241,,2,psycho,1160,1920,24,1200,24,0,0,1920,1629075040449,1024,2,48000,-16,bissec_temp,0,even,Win32,2000,,78,,,23972,34148,,23455,,32147,,22944,,31636,78,78,78,78,24696,,24689,34909,,,24172,34398,2271,,,23972,34148,,,,New experiment,2,677,2,yes,1366
100,100,296,296,black,no,Mozilla,Netscape,"5.0 (Windows NT 10.0; Win64; x64) AppleWebKit/537.36 (KHTML, like Gecko) Chrome/92.0.4515.131 Safari/537.36 Edg/92.0.902.73",psycho,psycho,psycho,0,longo,uniform,1,,1,1,,0,0,,,4,2,,4,,2,0,,4,,2,0,0,0,0,0,,4,2,,,,4,2,0,0,,,4,2,,,,4,,2,,15-07-21,16-07-21,21:50:29,Sun Aug 15 2021 21:50:29 GMT-0300 (Horário Padrão de Brasília),The main experiment item,yes,0,0,/Users/marcelarruda/Documents/OpenSesame,0,0,0,no,mono,no,18,no,white,no,no,768,39690,3.6.1,psycho,psycho,osweb,1.3.13,2100,42485,0,p,,None,lalt,space,,,,None,None,lalt,,,q,p,,517,2192,3435,,,,517,517,2550,,,192,210,,2,psycho,1160,1920,24,1200,24,0,0,1920,1629075040449,1024,2,48000,-16,bissec_temp,0,even,Win32,2000,,78,,,23972,37434,,23455,,35432,,22944,,34915,78,78,78,78,24696,,24689,38169,,,24172,37651,2271,,,23972,37434,,,,New experiment,3,887,3,yes,1366
100,100,316,316,black,no,Mozilla,Netscape,"5.0 (Windows NT 10.0; Win64; x64) AppleWebKit/537.36 (KHTML, like Gecko) Chrome/92.0.4515.131 Safari/537.36 Edg/92.0.902.73",psycho,psycho,psycho,0,longo,uniform,1,,1,1,,0,0,,,4,3,,4,,3,0,,4,,3,0,0,0,0,0,,4,3,,,,4,3,0,0,,,4,3,,,,4,,3,,15-07-21,16-07-21,21:50:29,Sun Aug 15 2021 21:50:29 GMT-0300 (Horário Padrão de Brasília),The main experiment item,yes,0,0,/Users/marcelarruda/Documents/OpenSesame,0,0,0,no,mono,no,18,no,white,no,no,768,39690,3.6.1,psycho,psycho,osweb,1.3.13,2100,42485,0,p,,None,lalt,space,,,,None,None,lalt,,,q,p,,500,2192,3435,,,,517,500,2550,,,192,378,,2,psycho,1160,1920,24,1200,24,0,0,1920,1629075040449,1024,2,48000,-16,bissec_temp,0,even,Win32,2000,,78,,,23972,40704,,23455,,38686,,22944,,38174,78,78,78,78,24696,,24689,41599,,,24172,41087,2271,,,23972,40704,,,,New experiment,4,1265,4,yes,1366
100,100,292,292,black,no,Mozilla,Netscape,"5.0 (Windows NT 10.0; Win64; x64) AppleWebKit/537.36 (KHTML, like Gecko) Chrome/92.0.4515.131 Safari/537.36 Edg/92.0.902.73",psycho,psycho,psycho,0,longo,uniform,1,,1,1,,0,0,,,4,4,,4,,4,0,,4,,4,0,0,0,0,0,,4,4,,,,4,4,0,0,,,4,4,,,,4,,4,,15-07-21,16-07-21,21:50:29,Sun Aug 15 2021 21:50:29 GMT-0300 (Horário Padrão de Brasília),The main experiment item,yes,0,0,/Users/marcelarruda/Documents/OpenSesame,0,0,0,no,mono,no,18,no,white,no,no,768,39690,3.6.1,psycho,psycho,osweb,1.3.13,2100,42485,0,p,,None,lalt,space,,,,None,None,lalt,,,q,p,,500,2192,3435,,,,517,500,2550,,,192,196,,2,psycho,1160,1920,24,1200,24,0,0,1920,1629075040449,1024,2,48000,-16,bissec_temp,0,even,Win32,2000,,78,,,23972,44123,,23455,,42121,,22944,,41606,78,78,78,78,24696,,24689,44839,,,24172,44323,2271,,,23972,44123,,,,New experiment,5,1461,5,yes,1366
100,100,350,350,black,no,Mozilla,Netscape,"5.0 (Windows NT 10.0; Win64; x64) AppleWebKit/537.36 (KHTML, like Gecko) Chrome/92.0.4515.131 Safari/537.36 Edg/92.0.902.73",psycho,psycho,psycho,0,curto,uniform,1,,1,1,1,0,0,0,,4,4,0,4,,4,0,0,4,,4,0,0,0,0,0,0,4,4,,0,,4,4,0,0,,,4,4,0,0,,4,,4,0,15-07-21,16-07-21,21:50:29,Sun Aug 15 2021 21:50:29 GMT-0300 (Horário Padrão de Brasília),The main experiment item,yes,0,0,/Users/marcelarruda/Documents/OpenSesame,0,0,0,no,mono,no,18,no,white,no,no,768,39690,3.6.1,psycho,psycho,osweb,1.3.13,2100,42485,0,q,,None,lalt,space,space,None,,None,None,lalt,,,q,p,q,501,2192,3435,2984,501,,517,500,2550,,,192,196,350,2,psycho,1160,1920,24,1200,24,0,0,1920,1629075040449,1024,2,48000,-16,bissec_temp,0,even,Win32,500,,78,48877,,23972,44123,48360,23455,,42121,47858,22944,,41606,78,78,78,78,24696,44846,24689,44839,49227,,24172,44323,2271,,,23972,44123,48877,49739,,New experiment,1,350,1,yes,1366
100,100,363,363,black,no,Mozilla,Netscape,"5.0 (Windows NT 10.0; Win64; x64) AppleWebKit/537.36 (KHTML, like Gecko) Chrome/92.0.4515.131 Safari/537.36 Edg/92.0.902.73",psycho,psycho,psycho,0,curto,uniform,1,,1,1,1,0,0,1,,4,4,1,4,,4,0,1,4,,4,0,0,0,0,0,0,4,4,,1,,4,4,0,0,,,4,4,1,1,,4,,4,1,15-07-21,16-07-21,21:50:29,Sun Aug 15 2021 21:50:29 GMT-0300 (Horário Padrão de Brasília),The main experiment item,yes,0,0,/Users/marcelarruda/Documents/OpenSesame,0,0,0,no,mono,no,18,no,white,no,no,768,39690,3.6.1,psycho,psycho,osweb,1.3.13,2100,42485,0,q,,None,lalt,space,space,None,,None,None,lalt,,,q,p,q,501,2192,3435,2984,501,,517,500,2550,,,192,196,375,2,psycho,1160,1920,24,1200,24,0,0,1920,1629075040449,1024,2,48000,-16,bissec_temp,0,even,Win32,500,,78,50779,,23972,44123,50262,23455,,42121,49751,22944,,41606,78,78,78,78,24696,44846,24689,44839,51162,,24172,44323,2271,,,23972,44123,50779,51679,,New experiment,2,725,2,yes,1366
100,100,317,317,black,no,Mozilla,Netscape,"5.0 (Windows NT 10.0; Win64; x64) AppleWebKit/537.36 (KHTML, like Gecko) Chrome/92.0.4515.131 Safari/537.36 Edg/92.0.902.73",psycho,psycho,psycho,0,longo,uniform,1,,1,1,1,0,0,2,,4,4,2,4,,4,0,2,4,,4,0,0,0,0,0,0,4,4,,2,,4,4,0,0,,,4,4,2,2,,4,,4,2,15-07-21,16-07-21,21:50:29,Sun Aug 15 2021 21:50:29 GMT-0300 (Horário Padrão de Brasília),The main experiment item,yes,0,0,/Users/marcelarruda/Documents/OpenSesame,0,0,0,no,mono,no,18,no,white,no,no,768,39690,3.6.1,psycho,psycho,osweb,1.3.13,2100,42485,0,p,,None,lalt,space,space,None,,None,None,lalt,,,q,p,p,517,2192,3435,2984,517,,517,500,2550,,,192,196,225,2,psycho,1160,1920,24,1200,24,0,0,1920,1629075040449,1024,2,48000,-16,bissec_temp,0,even,Win32,2000,,78,54199,,23972,44123,52197,23455,,42121,51688,22944,,41606,78,78,78,78,24696,44846,24689,44839,54432,,24172,44323,2271,,,23972,44123,54199,54950,,New experiment,3,950,3,yes,1366
100,100,334,334,black,no,Mozilla,Netscape,"5.0 (Windows NT 10.0; Win64; x64) AppleWebKit/537.36 (KHTML, like Gecko) Chrome/92.0.4515.131 Safari/537.36 Edg/92.0.902.73",psycho,psycho,psycho,0,curto,uniform,1,,1,1,1,0,0,3,,4,4,3,4,,4,0,3,4,,4,0,0,0,0,0,0,4,4,,3,,4,4,0,0,,,4,4,3,3,,4,,4,3,15-07-21,16-07-21,21:50:29,Sun Aug 15 2021 21:50:29 GMT-0300 (Horário Padrão de Brasília),The main experiment item,yes,0,0,/Users/marcelarruda/Documents/OpenSesame,0,0,0,no,mono,no,18,no,white,no,no,768,39690,3.6.1,psycho,psycho,osweb,1.3.13,2100,42485,0,q,,None,lalt,space,space,None,,None,None,lalt,,,q,p,q,500,2192,3435,2984,500,,517,500,2550,,,192,196,386,2,psycho,1160,1920,24,1200,24,0,0,1920,1629075040449,1024,2,48000,-16,bissec_temp,0,even,Win32,500,,78,55984,,23972,44123,55468,23455,,42121,54958,22944,,41606,78,78,78,78,24696,44846,24689,44839,56384,,24172,44323,2271,,,23972,44123,55984,56899,,New experiment,4,1336,4,yes,1366
100,100,341,341,black,no,Mozilla,Netscape,"5.0 (Windows NT 10.0; Win64; x64) AppleWebKit/537.36 (KHTML, like Gecko) Chrome/92.0.4515.131 Safari/537.36 Edg/92.0.902.73",psycho,psycho,psycho,0,longo,uniform,1,,1,1,1,0,0,4,,4,4,4,4,,4,0,4,4,,4,0,0,0,0,0,0,4,4,,4,,4,4,0,0,,,4,4,4,4,,4,,4,4,15-07-21,16-07-21,21:50:29,Sun Aug 15 2021 21:50:29 GMT-0300 (Horário Padrão de Brasília),The main experiment item,yes,0,0,/Users/marcelarruda/Documents/OpenSesame,0,0,0,no,mono,no,18,no,white,no,no,768,39690,3.6.1,psycho,psycho,osweb,1.3.13,2100,42485,0,p,,None,lalt,space,space,None,,None,None,lalt,,,q,p,p,501,2192,3435,2984,501,,517,500,2550,,,192,196,367,2,psycho,1160,1920,24,1200,24,0,0,1920,1629075040449,1024,2,48000,-16,bissec_temp,0,even,Win32,2000,,78,59420,,23972,44123,57419,23455,,42121,56908,22944,,41606,78,78,78,78,24696,44846,24689,44839,59803,,24172,44323,2271,,,23972,44123,59420,60319,,New experiment,5,1703,5,yes,1366
100,100,325,325,black,no,Mozilla,Netscape,"5.0 (Windows NT 10.0; Win64; x64) AppleWebKit/537.36 (KHTML, like Gecko) Chrome/92.0.4515.131 Safari/537.36 Edg/92.0.902.73",psycho,psycho,psycho,0,longo,uniform,1,,1,1,1,0,0,5,,4,4,5,4,,4,0,5,4,,4,0,0,0,0,0,0,4,4,,5,,4,4,0,0,,,4,4,5,5,,4,,4,5,15-07-21,16-07-21,21:50:29,Sun Aug 15 2021 21:50:29 GMT-0300 (Horário Padrão de Brasília),The main experiment item,yes,0,0,/Users/marcelarruda/Documents/OpenSesame,0,0,0,no,mono,no,18,no,white,no,no,768,39690,3.6.1,psycho,psycho,osweb,1.3.13,2100,42485,0,p,,None,lalt,space,space,None,,None,None,lalt,,,q,p,p,517,2192,3435,2984,517,,517,500,2550,,,192,196,244,2,psycho,1160,1920,24,1200,24,0,0,1920,1629075040449,1024,2,48000,-16,bissec_temp,0,even,Win32,2000,,78,62840,,23972,44123,60838,23455,,42121,60329,22944,,41606,78,78,78,78,24696,44846,24689,44839,63090,,24172,44323,2271,,,23972,44123,62840,63609,,New experiment,6,1947,6,yes,1366
100,100,314,314,black,no,Mozilla,Netscape,"5.0 (Windows NT 10.0; Win64; x64) AppleWebKit/537.36 (KHTML, like Gecko) Chrome/92.0.4515.131 Safari/537.36 Edg/92.0.902.73",psycho,psycho,psycho,0,longo,uniform,1,,1,1,1,0,0,6,,4,4,6,4,,4,0,6,4,,4,0,0,0,0,0,0,4,4,,6,,4,4,0,0,,,4,4,6,6,,4,,4,6,15-07-21,16-07-21,21:50:29,Sun Aug 15 2021 21:50:29 GMT-0300 (Horário Padrão de Brasília),The main experiment item,yes,0,0,/Users/marcelarruda/Documents/OpenSesame,0,0,0,no,mono,no,18,no,white,no,no,768,39690,3.6.1,psycho,psycho,osweb,1.3.13,2100,42485,0,p,,None,lalt,space,space,None,,None,None,lalt,,,q,p,p,500,2192,3435,2984,500,,517,500,2550,,,192,196,253,2,psycho,1160,1920,24,1200,24,0,0,1920,1629075040449,1024,2,48000,-16,bissec_temp,0,even,Win32,2000,,78,66127,,23972,44123,64124,23455,,42121,63617,22944,,41606,78,78,78,78,24696,44846,24689,44839,66393,,24172,44323,2271,,,23972,44123,66127,66910,,New experiment,7,2200,7,yes,1366
100,100,304,304,black,no,Mozilla,Netscape,"5.0 (Windows NT 10.0; Win64; x64) AppleWebKit/537.36 (KHTML, like Gecko) Chrome/92.0.4515.131 Safari/537.36 Edg/92.0.902.73",psycho,psycho,psycho,0,longo,uniform,1,,1,1,1,0,0,7,,4,4,7,4,,4,0,7,4,,4,0,0,0,0,0,0,4,4,,7,,4,4,0,0,,,4,4,7,7,,4,,4,7,15-07-21,16-07-21,21:50:29,Sun Aug 15 2021 21:50:29 GMT-0300 (Horário Padrão de Brasília),The main experiment item,yes,0,0,/Users/marcelarruda/Documents/OpenSesame,0,0,0,no,mono,no,18,no,white,no,no,768,39690,3.6.1,psycho,psycho,osweb,1.3.13,2100,42485,0,p,,None,lalt,space,space,None,,None,None,lalt,,,q,p,p,518,2192,3435,2984,518,,517,500,2550,,,192,196,230,2,psycho,1160,1920,24,1200,24,0,0,1920,1629075040449,1024,2,48000,-16,bissec_temp,0,even,Win32,2000,,78,69429,,23972,44123,67427,23455,,42121,66919,22944,,41606,78,78,78,78,24696,44846,24689,44839,69662,,24172,44323,2271,,,23972,44123,69429,70180,,New experiment,8,2430,8,yes,1366
100,100,300,300,black,no,Mozilla,Netscape,"5.0 (Windows NT 10.0; Win64; x64) AppleWebKit/537.36 (KHTML, like Gecko) Chrome/92.0.4515.131 Safari/537.36 Edg/92.0.902.73",psycho,psycho,psycho,0,longo,uniform,1,,1,1,1,0,0,8,,4,4,8,4,,4,0,8,4,,4,0,0,0,0,0,0,4,4,,8,,4,4,0,0,,,4,4,8,8,,4,,4,8,15-07-21,16-07-21,21:50:29,Sun Aug 15 2021 21:50:29 GMT-0300 (Horário Padrão de Brasília),The main experiment item,yes,0,0,/Users/marcelarruda/Documents/OpenSesame,0,0,0,no,mono,no,18,no,white,no,no,768,39690,3.6.1,psycho,psycho,osweb,1.3.13,2100,42485,0,p,,None,lalt,space,space,None,,None,None,lalt,,,q,p,p,517,2192,3435,2984,517,,517,500,2550,,,192,196,274,2,psycho,1160,1920,24,1200,24,0,0,1920,1629075040449,1024,2,48000,-16,bissec_temp,0,even,Win32,2000,,78,72698,,23972,44123,70697,23455,,42121,70189,22944,,41606,78,78,78,78,24696,44846,24689,44839,72982,,24172,44323,2271,,,23972,44123,72698,73500,,New experiment,9,2704,9,yes,1366
100,100,296,296,black,no,Mozilla,Netscape,"5.0 (Windows NT 10.0; Win64; x64) AppleWebKit/537.36 (KHTML, like Gecko) Chrome/92.0.4515.131 Safari/537.36 Edg/92.0.902.73",psycho,psycho,psycho,0,longo,uniform,1,,1,1,1,0,0,9,,4,4,9,4,,4,0,9,4,,4,0,0,0,0,0,0,4,4,,9,,4,4,0,0,,,4,4,9,9,,4,,4,9,15-07-21,16-07-21,21:50:29,Sun Aug 15 2021 21:50:29 GMT-0300 (Horário Padrão de Brasília),The main experiment item,yes,0,0,/Users/marcelarruda/Documents/OpenSesame,0,0,0,no,mono,no,18,no,white,no,no,768,39690,3.6.1,psycho,psycho,osweb,1.3.13,2100,42485,0,p,,None,lalt,space,space,None,,None,None,lalt,,,q,p,p,500,2192,3435,2984,500,,517,500,2550,,,192,196,253,2,psycho,1160,1920,24,1200,24,0,0,1920,1629075040449,1024,2,48000,-16,bissec_temp,0,even,Win32,2000,,78,76018,,23972,44123,74016,23455,,42121,73511,22944,,41606,78,78,78,78,24696,44846,24689,44839,76285,,24172,44323,2271,,,23972,44123,76018,76799,,New experiment,10,2957,10,yes,1366
0,0,261,261,black,no,Mozilla,Netscape,"5.0 (Windows NT 10.0; Win64; x64) AppleWebKit/537.36 (KHTML, like Gecko) Chrome/92.0.4515.131 Safari/537.36 Edg/92.0.902.73",psycho,psycho,psycho,0,curto,uniform,0,0,1,1,1,0,0,9,0,4,4,9,4,0,4,0,9,4,0,4,0,0,0,0,0,0,4,4,0,9,0,4,4,0,0,0,0,4,4,9,9,0,4,0,4,9,15-07-21,16-07-21,21:50:29,Sun Aug 15 2021 21:50:29 GMT-0300 (Horário Padrão de Brasília),The main experiment item,yes,0,0,/Users/marcelarruda/Documents/OpenSesame,0,0,0,no,mono,no,18,no,white,no,no,768,39690,3.6.1,psycho,psycho,osweb,1.3.13,2100,42485,0,q,q,None,lalt,space,space,None,None,None,None,lalt,space,p,q,p,p,517,2192,3435,2984,500,517,517,500,2550,6841,261,192,196,253,2,psycho,1160,1920,24,1200,24,0,0,1920,1629075040449,1024,2,48000,-16,bissec_temp,0,even,Win32,500,1000,78,76018,84892,23972,44123,74016,23455,83875,42121,73511,22944,83667,41606,78,78,78,78,24696,44846,24689,44839,76285,85159,24172,44323,2271,76809,84893,23972,44123,76018,76799,85680,New experiment,0,261,1,yes,1366
100,100,489,489,black,no,Mozilla,Netscape,"5.0 (Windows NT 10.0; Win64; x64) AppleWebKit/537.36 (KHTML, like Gecko) Chrome/92.0.4515.131 Safari/537.36 Edg/92.0.902.73",psycho,psycho,psycho,0,curto,uniform,1,1,1,1,1,0,0,9,1,4,4,9,4,1,4,0,9,4,1,4,0,0,0,0,0,0,4,4,1,9,1,4,4,0,0,0,1,4,4,9,9,1,4,1,4,9,15-07-21,16-07-21,21:50:29,Sun Aug 15 2021 21:50:29 GMT-0300 (Horário Padrão de Brasília),The main experiment item,yes,0,0,/Users/marcelarruda/Documents/OpenSesame,0,0,0,no,mono,no,18,no,white,no,no,768,39690,3.6.1,psycho,psycho,osweb,1.3.13,2100,42485,0,q,q,None,lalt,space,space,None,None,None,None,lalt,space,q,q,p,p,501,2192,3435,2984,500,501,517,500,2550,6841,489,192,196,253,2,psycho,1160,1920,24,1200,24,0,0,1920,1629075040449,1024,2,48000,-16,bissec_temp,0,even,Win32,500,1000,78,76018,86894,23972,44123,74016,23455,85893,42121,73511,22944,85689,41606,78,78,78,78,24696,44846,24689,44839,76285,87394,24172,44323,2271,76809,86894,23972,44123,76018,76799,87909,New experiment,1,489,1,yes,1366
100,100,513,513,black,no,Mozilla,Netscape,"5.0 (Windows NT 10.0; Win64; x64) AppleWebKit/537.36 (KHTML, like Gecko) Chrome/92.0.4515.131 Safari/537.36 Edg/92.0.902.73",psycho,psycho,psycho,0,curto,uniform,1,1,1,1,1,0,0,9,2,4,4,9,4,2,4,0,9,4,2,4,0,0,0,0,0,0,4,4,2,9,2,4,4,0,0,0,2,4,4,9,9,2,4,2,4,9,15-07-21,16-07-21,21:50:29,Sun Aug 15 2021 21:50:29 GMT-0300 (Horário Padrão de Brasília),The main experiment item,yes,0,0,/Users/marcelarruda/Documents/OpenSesame,0,0,0,no,mono,no,18,no,white,no,no,768,39690,3.6.1,psycho,psycho,osweb,1.3.13,2100,42485,0,q,q,None,lalt,space,space,None,None,None,None,lalt,space,q,q,p,p,500,2192,3435,2984,500,500,517,500,2550,6841,513,192,196,253,2,psycho,1160,1920,24,1200,24,0,0,1920,1629075040449,1024,2,48000,-16,bissec_temp,0,even,Win32,500,1000,78,76018,89146,23972,44123,74016,23455,88129,42121,73511,22944,87918,41606,78,78,78,78,24696,44846,24689,44839,76285,89663,24172,44323,2271,76809,89146,23972,44123,76018,76799,90179,New experiment,1,513,1,yes,1366
100,100,400,400,black,no,Mozilla,Netscape,"5.0 (Windows NT 10.0; Win64; x64) AppleWebKit/537.36 (KHTML, like Gecko) Chrome/92.0.4515.131 Safari/537.36 Edg/92.0.902.73",psycho,psycho,psycho,0,curto,uniform,1,1,1,1,1,0,0,9,3,4,4,9,4,3,4,0,9,4,3,4,0,0,0,0,0,0,4,4,3,9,3,4,4,0,0,0,3,4,4,9,9,3,4,3,4,9,15-07-21,16-07-21,21:50:29,Sun Aug 15 2021 21:50:29 GMT-0300 (Horário Padrão de Brasília),The main experiment item,yes,0,0,/Users/marcelarruda/Documents/OpenSesame,0,0,0,no,mono,no,18,no,white,no,no,768,39690,3.6.1,psycho,psycho,osweb,1.3.13,2100,42485,0,q,q,None,lalt,space,space,None,None,None,None,lalt,space,q,q,p,p,517,2192,3435,2984,500,517,517,500,2550,6841,400,192,196,253,2,psycho,1160,1920,24,1200,24,0,0,1920,1629075040449,1024,2,48000,-16,bissec_temp,0,even,Win32,500,630,78,76018,91031,23972,44123,74016,23455,90397,42121,73511,22944,90190,41606,78,78,78,78,24696,44846,24689,44839,76285,91431,24172,44323,2271,76809,91031,23972,44123,76018,76799,91949,New experiment,1,400,1,yes,1366
100,100,225,225,black,no,Mozilla,Netscape,"5.0 (Windows NT 10.0; Win64; x64) AppleWebKit/537.36 (KHTML, like Gecko) Chrome/92.0.4515.131 Safari/537.36 Edg/92.0.902.73",psycho,psycho,psycho,0,curto,uniform,1,1,1,1,1,0,0,9,4,4,4,9,4,4,4,0,9,4,4,4,0,0,0,0,0,0,4,4,4,9,4,4,4,0,0,0,4,4,4,9,9,4,4,4,4,9,15-07-21,16-07-21,21:50:29,Sun Aug 15 2021 21:50:29 GMT-0300 (Horário Padrão de Brasília),The main experiment item,yes,0,0,/Users/marcelarruda/Documents/OpenSesame,0,0,0,no,mono,no,18,no,white,no,no,768,39690,3.6.1,psycho,psycho,osweb,1.3.13,2100,42485,0,q,p,None,lalt,space,space,None,None,None,None,lalt,space,p,q,p,p,501,2192,3435,2984,500,501,517,500,2550,6841,225,192,196,253,2,psycho,1160,1920,24,1200,24,0,0,1920,1629075040449,1024,2,48000,-16,bissec_temp,0,even,Win32,500,1260,78,76018,93450,23972,44123,74016,23455,92182,42121,73511,22944,91969,41606,78,78,78,78,24696,44846,24689,44839,76285,93683,24172,44323,2271,76809,93450,23972,44123,76018,76799,94199,New experiment,1,225,1,yes,1366
100,100,405,405,black,no,Mozilla,Netscape,"5.0 (Windows NT 10.0; Win64; x64) AppleWebKit/537.36 (KHTML, like Gecko) Chrome/92.0.4515.131 Safari/537.36 Edg/92.0.902.73",psycho,psycho,psycho,0,curto,uniform,1,1,1,1,1,0,0,9,5,4,4,9,4,5,4,0,9,4,5,4,0,0,0,0,0,0,4,4,5,9,5,4,4,0,0,0,5,4,4,9,9,5,4,5,4,9,15-07-21,16-07-21,21:50:29,Sun Aug 15 2021 21:50:29 GMT-0300 (Horário Padrão de Brasília),The main experiment item,yes,0,0,/Users/marcelarruda/Documents/OpenSesame,0,0,0,no,mono,no,18,no,white,no,no,768,39690,3.6.1,psycho,psycho,osweb,1.3.13,2100,42485,0,q,q,None,lalt,space,space,None,None,None,None,lalt,space,q,q,p,p,517,2192,3435,2984,500,517,517,500,2550,6841,405,192,196,253,2,psycho,1160,1920,24,1200,24,0,0,1920,1629075040449,1024,2,48000,-16,bissec_temp,0,even,Win32,500,500,78,76018,94934,23972,44123,74016,23455,94418,42121,73511,22944,94208,41606,78,78,78,78,24696,44846,24689,44839,76285,95351,24172,44323,2271,76809,94934,23972,44123,76018,76799,95870,New experiment,1,405,1,yes,1366
100,100,206,206,black,no,Mozilla,Netscape,"5.0 (Windows NT 10.0; Win64; x64) AppleWebKit/537.36 (KHTML, like Gecko) Chrome/92.0.4515.131 Safari/537.36 Edg/92.0.902.73",psycho,psycho,psycho,0,curto,uniform,1,1,1,1,1,0,0,9,6,4,4,9,4,6,4,0,9,4,6,4,0,0,0,0,0,0,4,4,6,9,6,4,4,0,0,0,6,4,4,9,9,6,4,6,4,9,15-07-21,16-07-21,21:50:29,Sun Aug 15 2021 21:50:29 GMT-0300 (Horário Padrão de Brasília),The main experiment item,yes,0,0,/Users/marcelarruda/Documents/OpenSesame,0,0,0,no,mono,no,18,no,white,no,no,768,39690,3.6.1,psycho,psycho,osweb,1.3.13,2100,42485,0,q,p,None,lalt,space,space,None,None,None,None,lalt,space,p,q,p,p,517,2192,3435,2984,500,517,517,500,2550,6841,206,192,196,253,2,psycho,1160,1920,24,1200,24,0,0,1920,1629075040449,1024,2,48000,-16,bissec_temp,0,even,Win32,500,1260,78,76018,97353,23972,44123,74016,23455,96086,42121,73511,22944,95877,41606,78,78,78,78,24696,44846,24689,44839,76285,97570,24172,44323,2271,76809,97353,23972,44123,76018,76799,98089,New experiment,1,206,1,yes,1366
0,0,569,569,black,no,Mozilla,Netscape,"5.0 (Windows NT 10.0; Win64; x64) AppleWebKit/537.36 (KHTML, like Gecko) Chrome/92.0.4515.131 Safari/537.36 Edg/92.0.902.73",psycho,psycho,psycho,0,curto,uniform,0,0,1,1,1,0,0,9,7,4,4,9,4,7,4,0,9,4,7,4,0,0,0,0,0,0,4,4,7,9,7,4,4,0,0,0,7,4,4,9,9,7,4,7,4,9,15-07-21,16-07-21,21:50:29,Sun Aug 15 2021 21:50:29 GMT-0300 (Horário Padrão de Brasília),The main experiment item,yes,0,0,/Users/marcelarruda/Documents/OpenSesame,0,0,0,no,mono,no,18,no,white,no,no,768,39690,3.6.1,psycho,psycho,osweb,1.3.13,2100,42485,0,q,q,None,lalt,space,space,None,None,None,None,lalt,space,p,q,p,p,518,2192,3435,2984,500,518,517,500,2550,6841,569,192,196,253,2,psycho,1160,1920,24,1200,24,0,0,1920,1629075040449,1024,2,48000,-16,bissec_temp,0,even,Win32,500,793.5,78,76018,99105,23972,44123,74016,23455,98305,42121,73511,22944,98099,41606,78,78,78,78,24696,44846,24689,44839,76285,99688,24172,44323,2271,76809,99105,23972,44123,76018,76799,100209,New experiment,0,569,1,yes,1366
0,0,368,368,black,no,Mozilla,Netscape,"5.0 (Windows NT 10.0; Win64; x64) AppleWebKit/537.36 (KHTML, like Gecko) Chrome/92.0.4515.131 Safari/537.36 Edg/92.0.902.73",psycho,psycho,psycho,0,curto,uniform,0,0,1,1,1,0,0,9,8,4,4,9,4,8,4,0,9,4,8,4,0,0,0,0,0,0,4,4,8,9,8,4,4,0,0,0,8,4,4,9,9,8,4,8,4,9,15-07-21,16-07-21,21:50:29,Sun Aug 15 2021 21:50:29 GMT-0300 (Horário Padrão de Brasília),The main experiment item,yes,0,0,/Users/marcelarruda/Documents/OpenSesame,0,0,0,no,mono,no,18,no,white,no,no,768,39690,3.6.1,psycho,psycho,osweb,1.3.13,2100,42485,0,q,q,None,lalt,space,space,None,None,None,None,lalt,space,p,q,p,p,500,2192,3435,2984,500,500,517,500,2550,6841,368,192,196,253,2,psycho,1160,1920,24,1200,24,0,0,1920,1629075040449,1024,2,48000,-16,bissec_temp,0,even,Win32,500,1000,78,76018,101440,23972,44123,74016,23455,100423,42121,73511,22944,100217,41606,78,78,78,78,24696,44846,24689,44839,76285,101824,24172,44323,2271,76809,101441,23972,44123,76018,76799,102339,New experiment,0,368,1,yes,1366
0,0,754,754,black,no,Mozilla,Netscape,"5.0 (Windows NT 10.0; Win64; x64) AppleWebKit/537.36 (KHTML, like Gecko) Chrome/92.0.4515.131 Safari/537.36 Edg/92.0.902.73",psycho,psycho,psycho,0,curto,uniform,0,0,1,1,1,0,0,9,9,4,4,9,4,9,4,0,9,4,9,4,0,0,0,0,0,0,4,4,9,9,9,4,4,0,0,0,9,4,4,9,9,9,4,9,4,9,15-07-21,16-07-21,21:50:29,Sun Aug 15 2021 21:50:29 GMT-0300 (Horário Padrão de Brasília),The main experiment item,yes,0,0,/Users/marcelarruda/Documents/OpenSesame,0,0,0,no,mono,no,18,no,white,no,no,768,39690,3.6.1,psycho,psycho,osweb,1.3.13,2100,42485,0,q,q,None,lalt,space,space,None,None,None,None,lalt,space,p,q,p,p,500,2192,3435,2984,500,500,517,500,2550,6841,754,192,196,253,2,psycho,1160,1920,24,1200,24,0,0,1920,1629075040449,1024,2,48000,-16,bissec_temp,0,even,Win32,500,1000,78,76018,103559,23972,44123,74016,23455,102558,42121,73511,22944,102349,41606,78,78,78,78,24696,44846,24689,44839,76285,104326,24172,44323,2271,76809,103559,23972,44123,76018,76799,104839,New experiment,0,754,1,yes,1366
100,100,228,228,black,no,Mozilla,Netscape,"5.0 (Windows NT 10.0; Win64; x64) AppleWebKit/537.36 (KHTML, like Gecko) Chrome/92.0.4515.131 Safari/537.36 Edg/92.0.902.73",psycho,psycho,psycho,0,curto,uniform,1,1,1,1,1,0,0,9,10,4,4,9,4,10,4,0,9,4,10,4,0,0,0,0,0,0,4,4,10,9,10,4,4,0,0,0,10,4,4,9,9,10,4,10,4,9,15-07-21,16-07-21,21:50:29,Sun Aug 15 2021 21:50:29 GMT-0300 (Horário Padrão de Brasília),The main experiment item,yes,0,0,/Users/marcelarruda/Documents/OpenSesame,0,0,0,no,mono,no,18,no,white,no,no,768,39690,3.6.1,psycho,psycho,osweb,1.3.13,2100,42485,0,q,p,None,lalt,space,space,None,None,None,None,lalt,space,p,q,p,p,500,2192,3435,2984,500,500,517,500,2550,6841,228,192,196,253,2,psycho,1160,1920,24,1200,24,0,0,1920,1629075040449,1024,2,48000,-16,bissec_temp,0,even,Win32,500,1587,78,76018,106662,23972,44123,74016,23455,105060,42121,73511,22944,104848,41606,78,78,78,78,24696,44846,24689,44839,76285,106895,24172,44323,2271,76809,106662,23972,44123,76018,76799,107409,New experiment,1,228,1,yes,1366
100,100,210,210,black,no,Mozilla,Netscape,"5.0 (Windows NT 10.0; Win64; x64) AppleWebKit/537.36 (KHTML, like Gecko) Chrome/92.0.4515.131 Safari/537.36 Edg/92.0.902.73",psycho,psycho,psycho,0,curto,uniform,1,1,1,1,1,0,0,9,11,4,4,9,4,11,4,0,9,4,11,4,0,0,0,0,0,0,4,4,11,9,11,4,4,0,0,0,11,4,4,9,9,11,4,11,4,9,15-07-21,16-07-21,21:50:29,Sun Aug 15 2021 21:50:29 GMT-0300 (Horário Padrão de Brasília),The main experiment item,yes,0,0,/Users/marcelarruda/Documents/OpenSesame,0,0,0,no,mono,no,18,no,white,no,no,768,39690,3.6.1,psycho,psycho,osweb,1.3.13,2100,42485,0,q,p,None,lalt,space,space,None,None,None,None,lalt,space,p,q,p,p,501,2192,3435,2984,500,501,517,500,2550,6841,210,192,196,253,2,psycho,1160,1920,24,1200,24,0,0,1920,1629075040449,1024,2,48000,-16,bissec_temp,0,even,Win32,500,1587,78,76018,109231,23972,44123,74016,23455,107629,42121,73511,22944,107418,41606,78,78,78,78,24696,44846,24689,44839,76285,109447,24172,44323,2271,76809,109231,23972,44123,76018,76799,109959,New experiment,1,210,1,yes,1366
100,100,223,223,black,no,Mozilla,Netscape,"5.0 (Windows NT 10.0; Win64; x64) AppleWebKit/537.36 (KHTML, like Gecko) Chrome/92.0.4515.131 Safari/537.36 Edg/92.0.902.73",psycho,psycho,psycho,0,curto,uniform,1,1,1,1,1,0,0,9,12,4,4,9,4,12,4,0,9,4,12,4,0,0,0,0,0,0,4,4,12,9,12,4,4,0,0,0,12,4,4,9,9,12,4,12,4,9,15-07-21,16-07-21,21:50:29,Sun Aug 15 2021 21:50:29 GMT-0300 (Horário Padrão de Brasília),The main experiment item,yes,0,0,/Users/marcelarruda/Documents/OpenSesame,0,0,0,no,mono,no,18,no,white,no,no,768,39690,3.6.1,psycho,psycho,osweb,1.3.13,2100,42485,0,q,p,None,lalt,space,space,None,None,None,None,lalt,space,p,q,p,p,500,2192,3435,2984,500,500,517,500,2550,6841,223,192,196,253,2,psycho,1160,1920,24,1200,24,0,0,1920,1629075040449,1024,2,48000,-16,bissec_temp,0,even,Win32,500,2000,78,76018,112183,23972,44123,74016,23455,110181,42121,73511,22944,109968,41606,78,78,78,78,24696,44846,24689,44839,76285,112417,24172,44323,2271,76809,112183,23972,44123,76018,76799,112930,New experiment,1,223,1,yes,1366
100,100,344,344,black,no,Mozilla,Netscape,"5.0 (Windows NT 10.0; Win64; x64) AppleWebKit/537.36 (KHTML, like Gecko) Chrome/92.0.4515.131 Safari/537.36 Edg/92.0.902.73",psycho,psycho,psycho,0,curto,uniform,1,1,1,1,1,0,0,9,13,4,4,9,4,13,4,0,9,4,13,4,0,0,0,0,0,0,4,4,13,9,13,4,4,0,0,0,13,4,4,9,9,13,4,13,4,9,15-07-21,16-07-21,21:50:29,Sun Aug 15 2021 21:50:29 GMT-0300 (Horário Padrão de Brasília),The main experiment item,yes,0,0,/Users/marcelarruda/Documents/OpenSesame,0,0,0,no,mono,no,18,no,white,no,no,768,39690,3.6.1,psycho,psycho,osweb,1.3.13,2100,42485,0,q,p,None,lalt,space,space,None,None,None,None,lalt,space,p,q,p,p,500,2192,3435,2984,500,500,517,500,2550,6841,344,192,196,253,2,psycho,1160,1920,24,1200,24,0,0,1920,1629075040449,1024,2,48000,-16,bissec_temp,0,even,Win32,500,1260,78,76018,114418,23972,44123,74016,23455,113151,42121,73511,22944,112940,41606,78,78,78,78,24696,44846,24689,44839,76285,114769,24172,44323,2271,76809,114419,23972,44123,76018,76799,115279,New experiment,1,344,1,yes,1366
100,100,223,223,black,no,Mozilla,Netscape,"5.0 (Windows NT 10.0; Win64; x64) AppleWebKit/537.36 (KHTML, like Gecko) Chrome/92.0.4515.131 Safari/537.36 Edg/92.0.902.73",psycho,psycho,psycho,0,curto,uniform,1,1,1,1,1,0,0,9,14,4,4,9,4,14,4,0,9,4,14,4,0,0,0,0,0,0,4,4,14,9,14,4,4,0,0,0,14,4,4,9,9,14,4,14,4,9,15-07-21,16-07-21,21:50:29,Sun Aug 15 2021 21:50:29 GMT-0300 (Horário Padrão de Brasília),The main experiment item,yes,0,0,/Users/marcelarruda/Documents/OpenSesame,0,0,0,no,mono,no,18,no,white,no,no,768,39690,3.6.1,psycho,psycho,osweb,1.3.13,2100,42485,0,q,p,None,lalt,space,space,None,None,None,None,lalt,space,p,q,p,p,517,2192,3435,2984,500,517,517,500,2550,6841,223,192,196,253,2,psycho,1160,1920,24,1200,24,0,0,1920,1629075040449,1024,2,48000,-16,bissec_temp,0,even,Win32,500,2000,78,76018,117505,23972,44123,74016,23455,115503,42121,73511,22944,115289,41606,78,78,78,78,24696,44846,24689,44839,76285,117738,24172,44323,2271,76809,117505,23972,44123,76018,76799,118259,New experiment,1,223,1,yes,1366
100,100,402,402,black,no,Mozilla,Netscape,"5.0 (Windows NT 10.0; Win64; x64) AppleWebKit/537.36 (KHTML, like Gecko) Chrome/92.0.4515.131 Safari/537.36 Edg/92.0.902.73",psycho,psycho,psycho,0,curto,uniform,1,1,1,1,1,0,0,9,15,4,4,9,4,15,4,0,9,4,15,4,0,0,0,0,0,0,4,4,15,9,15,4,4,0,0,0,15,4,4,9,9,15,4,15,4,9,15-07-21,16-07-21,21:50:29,Sun Aug 15 2021 21:50:29 GMT-0300 (Horário Padrão de Brasília),The main experiment item,yes,0,0,/Users/marcelarruda/Documents/OpenSesame,0,0,0,no,mono,no,18,no,white,no,no,768,39690,3.6.1,psycho,psycho,osweb,1.3.13,2100,42485,0,q,p,None,lalt,space,space,None,None,None,None,lalt,space,p,q,p,p,517,2192,3435,2984,500,517,517,500,2550,6841,402,192,196,253,2,psycho,1160,1920,24,1200,24,0,0,1920,1629075040449,1024,2,48000,-16,bissec_temp,0,even,Win32,500,2000,78,76018,120474,23972,44123,74016,23455,118472,42121,73511,22944,118268,41606,78,78,78,78,24696,44846,24689,44839,76285,120891,24172,44323,2271,76809,120474,23972,44123,76018,76799,121409,New experiment,1,402,1,yes,1366
100,100,444,444,black,no,Mozilla,Netscape,"5.0 (Windows NT 10.0; Win64; x64) AppleWebKit/537.36 (KHTML, like Gecko) Chrome/92.0.4515.131 Safari/537.36 Edg/92.0.902.73",psycho,psycho,psycho,0,curto,uniform,1,1,1,1,1,0,0,9,16,4,4,9,4,16,4,0,9,4,16,4,0,0,0,0,0,0,4,4,16,9,16,4,4,0,0,0,16,4,4,9,9,16,4,16,4,9,15-07-21,16-07-21,21:50:29,Sun Aug 15 2021 21:50:29 GMT-0300 (Horário Padrão de Brasília),The main experiment item,yes,0,0,/Users/marcelarruda/Documents/OpenSesame,0,0,0,no,mono,no,18,no,white,no,no,768,39690,3.6.1,psycho,psycho,osweb,1.3.13,2100,42485,0,q,q,None,lalt,space,space,None,None,None,None,lalt,space,q,q,p,p,517,2192,3435,2984,500,517,517,500,2550,6841,444,192,196,253,2,psycho,1160,1920,24,1200,24,0,0,1920,1629075040449,1024,2,48000,-16,bissec_temp,0,even,Win32,500,630,78,76018,122259,23972,44123,74016,23455,121626,42121,73511,22944,121418,41606,78,78,78,78,24696,44846,24689,44839,76285,122709,24172,44323,2271,76809,122259,23972,44123,76018,76799,123230,New experiment,1,444,1,yes,1366
100,100,286,286,black,no,Mozilla,Netscape,"5.0 (Windows NT 10.0; Win64; x64) AppleWebKit/537.36 (KHTML, like Gecko) Chrome/92.0.4515.131 Safari/537.36 Edg/92.0.902.73",psycho,psycho,psycho,0,curto,uniform,1,1,1,1,1,0,0,9,17,4,4,9,4,17,4,0,9,4,17,4,0,0,0,0,0,0,4,4,17,9,17,4,4,0,0,0,17,4,4,9,9,17,4,17,4,9,15-07-21,16-07-21,21:50:29,Sun Aug 15 2021 21:50:29 GMT-0300 (Horário Padrão de Brasília),The main experiment item,yes,0,0,/Users/marcelarruda/Documents/OpenSesame,0,0,0,no,mono,no,18,no,white,no,no,768,39690,3.6.1,psycho,psycho,osweb,1.3.13,2100,42485,0,q,q,None,lalt,space,space,None,None,None,None,lalt,space,q,q,p,p,517,2192,3435,2984,500,517,517,500,2550,6841,286,192,196,253,2,psycho,1160,1920,24,1200,24,0,0,1920,1629075040449,1024,2,48000,-16,bissec_temp,0,even,Win32,500,500,78,76018,123960,23972,44123,74016,23455,123444,42121,73511,22944,123238,41606,78,78,78,78,24696,44846,24689,44839,76285,124260,24172,44323,2271,76809,123960,23972,44123,76018,76799,124779,New experiment,1,286,1,yes,1366
0,0,267,267,black,no,Mozilla,Netscape,"5.0 (Windows NT 10.0; Win64; x64) AppleWebKit/537.36 (KHTML, like Gecko) Chrome/92.0.4515.131 Safari/537.36 Edg/92.0.902.73",psycho,psycho,psycho,0,curto,uniform,0,0,1,1,1,0,0,9,18,4,4,9,4,18,4,0,9,4,18,4,0,0,0,0,0,0,4,4,18,9,18,4,4,0,0,0,18,4,4,9,9,18,4,18,4,9,15-07-21,16-07-21,21:50:29,Sun Aug 15 2021 21:50:29 GMT-0300 (Horário Padrão de Brasília),The main experiment item,yes,0,0,/Users/marcelarruda/Documents/OpenSesame,0,0,0,no,mono,no,18,no,white,no,no,768,39690,3.6.1,psycho,psycho,osweb,1.3.13,2100,42485,0,q,q,None,lalt,space,space,None,None,None,None,lalt,space,p,q,p,p,501,2192,3435,2984,500,501,517,500,2550,6841,267,192,196,253,2,psycho,1160,1920,24,1200,24,0,0,1920,1629075040449,1024,2,48000,-16,bissec_temp,0,even,Win32,500,1000,78,76018,126013,23972,44123,74016,23455,124995,42121,73511,22944,124789,41606,78,78,78,78,24696,44846,24689,44839,76285,126295,24172,44323,2271,76809,126013,23972,44123,76018,76799,126809,New experiment,0,267,1,yes,1366
100,100,264,264,black,no,Mozilla,Netscape,"5.0 (Windows NT 10.0; Win64; x64) AppleWebKit/537.36 (KHTML, like Gecko) Chrome/92.0.4515.131 Safari/537.36 Edg/92.0.902.73",psycho,psycho,psycho,0,curto,uniform,1,1,1,1,1,0,0,9,19,4,4,9,4,19,4,0,9,4,19,4,0,0,0,0,0,0,4,4,19,9,19,4,4,0,0,0,19,4,4,9,9,19,4,19,4,9,15-07-21,16-07-21,21:50:29,Sun Aug 15 2021 21:50:29 GMT-0300 (Horário Padrão de Brasília),The main experiment item,yes,0,0,/Users/marcelarruda/Documents/OpenSesame,0,0,0,no,mono,no,18,no,white,no,no,768,39690,3.6.1,psycho,psycho,osweb,1.3.13,2100,42485,0,q,p,None,lalt,space,space,None,None,None,None,lalt,space,p,q,p,p,500,2192,3435,2984,500,500,517,500,2550,6841,264,192,196,253,2,psycho,1160,1920,24,1200,24,0,0,1920,1629075040449,1024,2,48000,-16,bissec_temp,0,even,Win32,500,1260,78,76018,128297,23972,44123,74016,23455,127030,42121,73511,22944,126819,41606,78,78,78,78,24696,44846,24689,44839,76285,128564,24172,44323,2271,76809,128297,23972,44123,76018,76799,129079,New experiment,1,264,1,yes,1366
100,100,209,209,black,no,Mozilla,Netscape,"5.0 (Windows NT 10.0; Win64; x64) AppleWebKit/537.36 (KHTML, like Gecko) Chrome/92.0.4515.131 Safari/537.36 Edg/92.0.902.73",psycho,psycho,psycho,0,curto,uniform,1,1,1,1,1,0,0,9,20,4,4,9,4,20,4,0,9,4,20,4,0,0,0,0,0,0,4,4,20,9,20,4,4,0,0,0,20,4,4,9,9,20,4,20,4,9,15-07-21,16-07-21,21:50:29,Sun Aug 15 2021 21:50:29 GMT-0300 (Horário Padrão de Brasília),The main experiment item,yes,0,0,/Users/marcelarruda/Documents/OpenSesame,0,0,0,no,mono,no,18,no,white,no,no,768,39690,3.6.1,psycho,psycho,osweb,1.3.13,2100,42485,0,q,p,None,lalt,space,space,None,None,None,None,lalt,space,p,q,p,p,500,2192,3435,2984,500,500,517,500,2550,6841,209,192,196,253,2,psycho,1160,1920,24,1200,24,0,0,1920,1629075040449,1024,2,48000,-16,bissec_temp,0,even,Win32,500,2000,78,76018,131300,23972,44123,74016,23455,129298,42121,73511,22944,129089,41606,78,78,78,78,24696,44846,24689,44839,76285,131517,24172,44323,2271,76809,131300,23972,44123,76018,76799,132030,New experiment,1,209,1,yes,1366
100,100,304,304,black,no,Mozilla,Netscape,"5.0 (Windows NT 10.0; Win64; x64) AppleWebKit/537.36 (KHTML, like Gecko) Chrome/92.0.4515.131 Safari/537.36 Edg/92.0.902.73",psycho,psycho,psycho,0,curto,uniform,1,1,1,1,1,0,0,9,21,4,4,9,4,21,4,0,9,4,21,4,0,0,0,0,0,0,4,4,21,9,21,4,4,0,0,0,21,4,4,9,9,21,4,21,4,9,15-07-21,16-07-21,21:50:29,Sun Aug 15 2021 21:50:29 GMT-0300 (Horário Padrão de Brasília),The main experiment item,yes,0,0,/Users/marcelarruda/Documents/OpenSesame,0,0,0,no,mono,no,18,no,white,no,no,768,39690,3.6.1,psycho,psycho,osweb,1.3.13,2100,42485,0,q,q,None,lalt,space,space,None,None,None,None,lalt,space,q,q,p,p,500,2192,3435,2984,500,500,517,500,2550,6841,304,192,196,253,2,psycho,1160,1920,24,1200,24,0,0,1920,1629075040449,1024,2,48000,-16,bissec_temp,0,even,Win32,500,500,78,76018,132768,23972,44123,74016,23455,132251,42121,73511,22944,132040,41606,78,78,78,78,24696,44846,24689,44839,76285,133085,24172,44323,2271,76809,132768,23972,44123,76018,76799,133599,New experiment,1,304,1,yes,1366
0,0,580,580,black,no,Mozilla,Netscape,"5.0 (Windows NT 10.0; Win64; x64) AppleWebKit/537.36 (KHTML, like Gecko) Chrome/92.0.4515.131 Safari/537.36 Edg/92.0.902.73",psycho,psycho,psycho,0,curto,uniform,0,0,1,1,1,0,0,9,22,4,4,9,4,22,4,0,9,4,22,4,0,0,0,0,0,0,4,4,22,9,22,4,4,0,0,0,22,4,4,9,9,22,4,22,4,9,15-07-21,16-07-21,21:50:29,Sun Aug 15 2021 21:50:29 GMT-0300 (Horário Padrão de Brasília),The main experiment item,yes,0,0,/Users/marcelarruda/Documents/OpenSesame,0,0,0,no,mono,no,18,no,white,no,no,768,39690,3.6.1,psycho,psycho,osweb,1.3.13,2100,42485,0,q,q,None,lalt,space,space,None,None,None,None,lalt,space,p,q,p,p,501,2192,3435,2984,500,501,517,500,2550,6841,580,192,196,253,2,psycho,1160,1920,24,1200,24,0,0,1920,1629075040449,1024,2,48000,-16,bissec_temp,0,even,Win32,500,793.5,78,76018,134620,23972,44123,74016,23455,133820,42121,73511,22944,133607,41606,78,78,78,78,24696,44846,24689,44839,76285,135203,24172,44323,2271,76809,134620,23972,44123,76018,76799,135719,New experiment,0,580,1,yes,1366
100,100,231,231,black,no,Mozilla,Netscape,"5.0 (Windows NT 10.0; Win64; x64) AppleWebKit/537.36 (KHTML, like Gecko) Chrome/92.0.4515.131 Safari/537.36 Edg/92.0.902.73",psycho,psycho,psycho,0,curto,uniform,1,1,1,1,1,0,0,9,23,4,4,9,4,23,4,0,9,4,23,4,0,0,0,0,0,0,4,4,23,9,23,4,4,0,0,0,23,4,4,9,9,23,4,23,4,9,15-07-21,16-07-21,21:50:29,Sun Aug 15 2021 21:50:29 GMT-0300 (Horário Padrão de Brasília),The main experiment item,yes,0,0,/Users/marcelarruda/Documents/OpenSesame,0,0,0,no,mono,no,18,no,white,no,no,768,39690,3.6.1,psycho,psycho,osweb,1.3.13,2100,42485,0,q,p,None,lalt,space,space,None,None,None,None,lalt,space,p,q,p,p,516,2192,3435,2984,500,516,517,500,2550,6841,231,192,196,253,2,psycho,1160,1920,24,1200,24,0,0,1920,1629075040449,1024,2,48000,-16,bissec_temp,0,even,Win32,500,1260,78,76018,137206,23972,44123,74016,23455,135938,42121,73511,22944,135731,41606,78,78,78,78,24696,44846,24689,44839,76285,137439,24172,44323,2271,76809,137206,23972,44123,76018,76799,137959,New experiment,1,231,1,yes,1366
100,100,219,219,black,no,Mozilla,Netscape,"5.0 (Windows NT 10.0; Win64; x64) AppleWebKit/537.36 (KHTML, like Gecko) Chrome/92.0.4515.131 Safari/537.36 Edg/92.0.902.73",psycho,psycho,psycho,0,curto,uniform,1,1,1,1,1,0,0,9,24,4,4,9,4,24,4,0,9,4,24,4,0,0,0,0,0,0,4,4,24,9,24,4,4,0,0,0,24,4,4,9,9,24,4,24,4,9,15-07-21,16-07-21,21:50:29,Sun Aug 15 2021 21:50:29 GMT-0300 (Horário Padrão de Brasília),The main experiment item,yes,0,0,/Users/marcelarruda/Documents/OpenSesame,0,0,0,no,mono,no,18,no,white,no,no,768,39690,3.6.1,psycho,psycho,osweb,1.3.13,2100,42485,0,q,p,None,lalt,space,space,None,None,None,None,lalt,space,p,q,p,p,501,2192,3435,2984,500,501,517,500,2550,6841,219,192,196,253,2,psycho,1160,1920,24,1200,24,0,0,1920,1629075040449,1024,2,48000,-16,bissec_temp,0,even,Win32,500,1587,78,76018,139774,23972,44123,74016,23455,138173,42121,73511,22944,137968,41606,78,78,78,78,24696,44846,24689,44839,76285,140007,24172,44323,2271,76809,139774,23972,44123,76018,76799,140519,New experiment,1,219,1,yes,1366
100,100,450,450,black,no,Mozilla,Netscape,"5.0 (Windows NT 10.0; Win64; x64) AppleWebKit/537.36 (KHTML, like Gecko) Chrome/92.0.4515.131 Safari/537.36 Edg/92.0.902.73",psycho,psycho,psycho,0,curto,uniform,1,1,1,1,1,0,0,9,25,4,4,9,4,25,4,0,9,4,25,4,0,0,0,0,0,0,4,4,25,9,25,4,4,0,0,0,25,4,4,9,9,25,4,25,4,9,15-07-21,16-07-21,21:50:29,Sun Aug 15 2021 21:50:29 GMT-0300 (Horário Padrão de Brasília),The main experiment item,yes,0,0,/Users/marcelarruda/Documents/OpenSesame,0,0,0,no,mono,no,18,no,white,no,no,768,39690,3.6.1,psycho,psycho,osweb,1.3.13,2100,42485,0,q,q,None,lalt,space,space,None,None,None,None,lalt,space,q,q,p,p,500,2192,3435,2984,500,500,517,500,2550,6841,450,192,196,253,2,psycho,1160,1920,24,1200,24,0,0,1920,1629075040449,1024,2,48000,-16,bissec_temp,0,even,Win32,500,630,78,76018,141376,23972,44123,74016,23455,140742,42121,73511,22944,140528,41606,78,78,78,78,24696,44846,24689,44839,76285,141826,24172,44323,2271,76809,141376,23972,44123,76018,76799,142340,New experiment,1,450,1,yes,1366
0,0,218,218,black,no,Mozilla,Netscape,"5.0 (Windows NT 10.0; Win64; x64) AppleWebKit/537.36 (KHTML, like Gecko) Chrome/92.0.4515.131 Safari/537.36 Edg/92.0.902.73",psycho,psycho,psycho,0,curto,uniform,0,0,1,1,1,0,0,9,26,4,4,9,4,26,4,0,9,4,26,4,0,0,0,0,0,0,4,4,26,9,26,4,4,0,0,0,26,4,4,9,9,26,4,26,4,9,15-07-21,16-07-21,21:50:29,Sun Aug 15 2021 21:50:29 GMT-0300 (Horário Padrão de Brasília),The main experiment item,yes,0,0,/Users/marcelarruda/Documents/OpenSesame,0,0,0,no,mono,no,18,no,white,no,no,768,39690,3.6.1,psycho,psycho,osweb,1.3.13,2100,42485,0,q,q,None,lalt,space,space,None,None,None,None,lalt,space,p,q,p,p,501,2192,3435,2984,500,501,517,500,2550,6841,218,192,196,253,2,psycho,1160,1920,24,1200,24,0,0,1920,1629075040449,1024,2,48000,-16,bissec_temp,0,even,Win32,500,1000,78,76018,143561,23972,44123,74016,23455,142560,42121,73511,22944,142349,41606,78,78,78,78,24696,44846,24689,44839,76285,143794,24172,44323,2271,76809,143561,23972,44123,76018,76799,144309,New experiment,0,218,1,yes,1366
100,100,221,221,black,no,Mozilla,Netscape,"5.0 (Windows NT 10.0; Win64; x64) AppleWebKit/537.36 (KHTML, like Gecko) Chrome/92.0.4515.131 Safari/537.36 Edg/92.0.902.73",psycho,psycho,psycho,0,curto,uniform,1,1,1,1,1,0,0,9,27,4,4,9,4,27,4,0,9,4,27,4,0,0,0,0,0,0,4,4,27,9,27,4,4,0,0,0,27,4,4,9,9,27,4,27,4,9,15-07-21,16-07-21,21:50:29,Sun Aug 15 2021 21:50:29 GMT-0300 (Horário Padrão de Brasília),The main experiment item,yes,0,0,/Users/marcelarruda/Documents/OpenSesame,0,0,0,no,mono,no,18,no,white,no,no,768,39690,3.6.1,psycho,psycho,osweb,1.3.13,2100,42485,0,q,p,None,lalt,space,space,None,None,None,None,lalt,space,p,q,p,p,500,2192,3435,2984,500,500,517,500,2550,6841,221,192,196,253,2,psycho,1160,1920,24,1200,24,0,0,1920,1629075040449,1024,2,48000,-16,bissec_temp,0,even,Win32,500,1587,78,76018,146130,23972,44123,74016,23455,144528,42121,73511,22944,144318,41606,78,78,78,78,24696,44846,24689,44839,76285,146363,24172,44323,2271,76809,146130,23972,44123,76018,76799,146879,New experiment,1,221,1,yes,1366
100,100,212,212,black,no,Mozilla,Netscape,"5.0 (Windows NT 10.0; Win64; x64) AppleWebKit/537.36 (KHTML, like Gecko) Chrome/92.0.4515.131 Safari/537.36 Edg/92.0.902.73",psycho,psycho,psycho,0,curto,uniform,1,1,1,1,1,0,0,9,28,4,4,9,4,28,4,0,9,4,28,4,0,0,0,0,0,0,4,4,28,9,28,4,4,0,0,0,28,4,4,9,9,28,4,28,4,9,15-07-21,16-07-21,21:50:29,Sun Aug 15 2021 21:50:29 GMT-0300 (Horário Padrão de Brasília),The main experiment item,yes,0,0,/Users/marcelarruda/Documents/OpenSesame,0,0,0,no,mono,no,18,no,white,no,no,768,39690,3.6.1,psycho,psycho,osweb,1.3.13,2100,42485,0,q,p,None,lalt,space,space,None,None,None,None,lalt,space,p,q,p,p,501,2192,3435,2984,500,501,517,500,2550,6841,212,192,196,253,2,psycho,1160,1920,24,1200,24,0,0,1920,1629075040449,1024,2,48000,-16,bissec_temp,0,even,Win32,500,1587,78,76018,148699,23972,44123,74016,23455,147097,42121,73511,22944,146888,41606,78,78,78,78,24696,44846,24689,44839,76285,148915,24172,44323,2271,76809,148699,23972,44123,76018,76799,149430,New experiment,1,212,1,yes,1366
100,100,191,191,black,no,Mozilla,Netscape,"5.0 (Windows NT 10.0; Win64; x64) AppleWebKit/537.36 (KHTML, like Gecko) Chrome/92.0.4515.131 Safari/537.36 Edg/92.0.902.73",psycho,psycho,psycho,0,curto,uniform,1,1,1,1,1,0,0,9,29,4,4,9,4,29,4,0,9,4,29,4,0,0,0,0,0,0,4,4,29,9,29,4,4,0,0,0,29,4,4,9,9,29,4,29,4,9,15-07-21,16-07-21,21:50:29,Sun Aug 15 2021 21:50:29 GMT-0300 (Horário Padrão de Brasília),The main experiment item,yes,0,0,/Users/marcelarruda/Documents/OpenSesame,0,0,0,no,mono,no,18,no,white,no,no,768,39690,3.6.1,psycho,psycho,osweb,1.3.13,2100,42485,0,q,p,None,lalt,space,space,None,None,None,None,lalt,space,p,q,p,p,517,2192,3435,2984,500,517,517,500,2550,6841,191,192,196,253,2,psycho,1160,1920,24,1200,24,0,0,1920,1629075040449,1024,2,48000,-16,bissec_temp,0,even,Win32,500,2000,78,76018,151652,23972,44123,74016,23455,149650,42121,73511,22944,149439,41606,78,78,78,78,24696,44846,24689,44839,76285,151851,24172,44323,2271,76809,151652,23972,44123,76018,76799,152370,New experiment,1,191,1,yes,1366
100,100,223,223,black,no,Mozilla,Netscape,"5.0 (Windows NT 10.0; Win64; x64) AppleWebKit/537.36 (KHTML, like Gecko) Chrome/92.0.4515.131 Safari/537.36 Edg/92.0.902.73",psycho,psycho,psycho,0,curto,uniform,1,1,1,1,1,0,0,9,30,4,4,9,4,30,4,0,9,4,30,4,0,0,0,0,0,0,4,4,30,9,30,4,4,0,0,0,30,4,4,9,9,30,4,30,4,9,15-07-21,16-07-21,21:50:29,Sun Aug 15 2021 21:50:29 GMT-0300 (Horário Padrão de Brasília),The main experiment item,yes,0,0,/Users/marcelarruda/Documents/OpenSesame,0,0,0,no,mono,no,18,no,white,no,no,768,39690,3.6.1,psycho,psycho,osweb,1.3.13,2100,42485,0,q,p,None,lalt,space,space,None,None,None,None,lalt,space,p,q,p,p,501,2192,3435,2984,500,501,517,500,2550,6841,223,192,196,253,2,psycho,1160,1920,24,1200,24,0,0,1920,1629075040449,1024,2,48000,-16,bissec_temp,0,even,Win32,500,1260,78,76018,153853,23972,44123,74016,23455,152586,42121,73511,22944,152378,41606,78,78,78,78,24696,44846,24689,44839,76285,154086,24172,44323,2271,76809,153854,23972,44123,76018,76799,154600,New experiment,1,223,1,yes,1366
100,100,499,499,black,no,Mozilla,Netscape,"5.0 (Windows NT 10.0; Win64; x64) AppleWebKit/537.36 (KHTML, like Gecko) Chrome/92.0.4515.131 Safari/537.36 Edg/92.0.902.73",psycho,psycho,psycho,0,curto,uniform,1,1,1,1,1,0,0,9,31,4,4,9,4,31,4,0,9,4,31,4,0,0,0,0,0,0,4,4,31,9,31,4,4,0,0,0,31,4,4,9,9,31,4,31,4,9,15-07-21,16-07-21,21:50:29,Sun Aug 15 2021 21:50:29 GMT-0300 (Horário Padrão de Brasília),The main experiment item,yes,0,0,/Users/marcelarruda/Documents/OpenSesame,0,0,0,no,mono,no,18,no,white,no,no,768,39690,3.6.1,psycho,psycho,osweb,1.3.13,2100,42485,0,q,q,None,lalt,space,space,None,None,None,None,lalt,space,q,q,p,p,517,2192,3435,2984,500,517,517,500,2550,6841,499,192,196,253,2,psycho,1160,1920,24,1200,24,0,0,1920,1629075040449,1024,2,48000,-16,bissec_temp,0,even,Win32,500,500,78,76018,155338,23972,44123,74016,23455,154821,42121,73511,22944,154611,41606,78,78,78,78,24696,44846,24689,44839,76285,155838,24172,44323,2271,76809,155338,23972,44123,76018,76799,156359,New experiment,1,499,1,yes,1366
100,100,312,312,black,no,Mozilla,Netscape,"5.0 (Windows NT 10.0; Win64; x64) AppleWebKit/537.36 (KHTML, like Gecko) Chrome/92.0.4515.131 Safari/537.36 Edg/92.0.902.73",psycho,psycho,psycho,0,curto,uniform,1,1,1,1,1,0,0,9,32,4,4,9,4,32,4,0,9,4,32,4,0,0,0,0,0,0,4,4,32,9,32,4,4,0,0,0,32,4,4,9,9,32,4,32,4,9,15-07-21,16-07-21,21:50:29,Sun Aug 15 2021 21:50:29 GMT-0300 (Horário Padrão de Brasília),The main experiment item,yes,0,0,/Users/marcelarruda/Documents/OpenSesame,0,0,0,no,mono,no,18,no,white,no,no,768,39690,3.6.1,psycho,psycho,osweb,1.3.13,2100,42485,0,q,q,None,lalt,space,space,None,None,None,None,lalt,space,q,q,p,p,500,2192,3435,2984,500,500,517,500,2550,6841,312,192,196,253,2,psycho,1160,1920,24,1200,24,0,0,1920,1629075040449,1024,2,48000,-16,bissec_temp,0,even,Win32,500,500,78,76018,157090,23972,44123,74016,23455,156572,42121,73511,22944,156368,41606,78,78,78,78,24696,44846,24689,44839,76285,157406,24172,44323,2271,76809,157090,23972,44123,76018,76799,157919,New experiment,1,312,1,yes,1366
0,0,249,249,black,no,Mozilla,Netscape,"5.0 (Windows NT 10.0; Win64; x64) AppleWebKit/537.36 (KHTML, like Gecko) Chrome/92.0.4515.131 Safari/537.36 Edg/92.0.902.73",psycho,psycho,psycho,0,curto,uniform,0,0,1,1,1,0,0,9,33,4,4,9,4,33,4,0,9,4,33,4,0,0,0,0,0,0,4,4,33,9,33,4,4,0,0,0,33,4,4,9,9,33,4,33,4,9,15-07-21,16-07-21,21:50:29,Sun Aug 15 2021 21:50:29 GMT-0300 (Horário Padrão de Brasília),The main experiment item,yes,0,0,/Users/marcelarruda/Documents/OpenSesame,0,0,0,no,mono,no,18,no,white,no,no,768,39690,3.6.1,psycho,psycho,osweb,1.3.13,2100,42485,0,q,q,None,lalt,space,space,None,None,None,None,lalt,space,p,q,p,p,517,2192,3435,2984,500,517,517,500,2550,6841,249,192,196,253,2,psycho,1160,1920,24,1200,24,0,0,1920,1629075040449,1024,2,48000,-16,bissec_temp,0,even,Win32,500,1000,78,76018,159141,23972,44123,74016,23455,158140,42121,73511,22944,157929,41606,78,78,78,78,24696,44846,24689,44839,76285,159391,24172,44323,2271,76809,159141,23972,44123,76018,76799,159909,New experiment,0,249,1,yes,1366
100,100,282,282,black,no,Mozilla,Netscape,"5.0 (Windows NT 10.0; Win64; x64) AppleWebKit/537.36 (KHTML, like Gecko) Chrome/92.0.4515.131 Safari/537.36 Edg/92.0.902.73",psycho,psycho,psycho,0,curto,uniform,1,1,1,1,1,0,0,9,34,4,4,9,4,34,4,0,9,4,34,4,0,0,0,0,0,0,4,4,34,9,34,4,4,0,0,0,34,4,4,9,9,34,4,34,4,9,15-07-21,16-07-21,21:50:29,Sun Aug 15 2021 21:50:29 GMT-0300 (Horário Padrão de Brasília),The main experiment item,yes,0,0,/Users/marcelarruda/Documents/OpenSesame,0,0,0,no,mono,no,18,no,white,no,no,768,39690,3.6.1,psycho,psycho,osweb,1.3.13,2100,42485,0,q,q,None,lalt,space,space,None,None,None,None,lalt,space,q,q,p,p,518,2192,3435,2984,500,518,517,500,2550,6841,282,192,196,253,2,psycho,1160,1920,24,1200,24,0,0,1920,1629075040449,1024,2,48000,-16,bissec_temp,0,even,Win32,500,793.5,78,76018,160926,23972,44123,74016,23455,160126,42121,73511,22944,159917,41606,78,78,78,78,24696,44846,24689,44839,76285,161209,24172,44323,2271,76809,160926,23972,44123,76018,76799,161730,New experiment,1,282,1,yes,1366
100,100,679,679,black,no,Mozilla,Netscape,"5.0 (Windows NT 10.0; Win64; x64) AppleWebKit/537.36 (KHTML, like Gecko) Chrome/92.0.4515.131 Safari/537.36 Edg/92.0.902.73",psycho,psycho,psycho,0,curto,uniform,1,1,1,1,1,0,0,9,35,4,4,9,4,35,4,0,9,4,35,4,0,0,0,0,0,0,4,4,35,9,35,4,4,0,0,0,35,4,4,9,9,35,4,35,4,9,15-07-21,16-07-21,21:50:29,Sun Aug 15 2021 21:50:29 GMT-0300 (Horário Padrão de Brasília),The main experiment item,yes,0,0,/Users/marcelarruda/Documents/OpenSesame,0,0,0,no,mono,no,18,no,white,no,no,768,39690,3.6.1,psycho,psycho,osweb,1.3.13,2100,42485,0,q,q,None,lalt,space,space,None,None,None,None,lalt,space,q,q,p,p,517,2192,3435,2984,500,517,517,500,2550,6841,679,192,196,253,2,psycho,1160,1920,24,1200,24,0,0,1920,1629075040449,1024,2,48000,-16,bissec_temp,0,even,Win32,500,793.5,78,76018,162745,23972,44123,74016,23455,161944,42121,73511,22944,161738,41606,78,78,78,78,24696,44846,24689,44839,76285,163428,24172,44323,2271,76809,162745,23972,44123,76018,76799,163949,New experiment,1,679,1,yes,1366
100,100,259,259,black,no,Mozilla,Netscape,"5.0 (Windows NT 10.0; Win64; x64) AppleWebKit/537.36 (KHTML, like Gecko) Chrome/92.0.4515.131 Safari/537.36 Edg/92.0.902.73",psycho,psycho,psycho,0,curto,uniform,1,1,1,1,1,0,0,9,36,4,4,9,4,36,4,0,9,4,36,4,0,0,0,0,0,0,4,4,36,9,36,4,4,0,0,0,36,4,4,9,9,36,4,36,4,9,15-07-21,16-07-21,21:50:29,Sun Aug 15 2021 21:50:29 GMT-0300 (Horário Padrão de Brasília),The main experiment item,yes,0,0,/Users/marcelarruda/Documents/OpenSesame,0,0,0,no,mono,no,18,no,white,no,no,768,39690,3.6.1,psycho,psycho,osweb,1.3.13,2100,42485,0,q,p,None,lalt,space,space,None,None,None,None,lalt,space,p,q,p,p,517,2192,3435,2984,500,517,517,500,2550,6841,259,192,196,253,2,psycho,1160,1920,24,1200,24,0,0,1920,1629075040449,1024,2,48000,-16,bissec_temp,0,even,Win32,500,2000,78,76018,166165,23972,44123,74016,23455,164162,42121,73511,22944,163957,41606,78,78,78,78,24696,44846,24689,44839,76285,166431,24172,44323,2271,76809,166165,23972,44123,76018,76799,166949,New experiment,1,259,1,yes,1366
100,100,343,343,black,no,Mozilla,Netscape,"5.0 (Windows NT 10.0; Win64; x64) AppleWebKit/537.36 (KHTML, like Gecko) Chrome/92.0.4515.131 Safari/537.36 Edg/92.0.902.73",psycho,psycho,psycho,0,curto,uniform,1,1,1,1,1,0,0,9,37,4,4,9,4,37,4,0,9,4,37,4,0,0,0,0,0,0,4,4,37,9,37,4,4,0,0,0,37,4,4,9,9,37,4,37,4,9,15-07-21,16-07-21,21:50:29,Sun Aug 15 2021 21:50:29 GMT-0300 (Horário Padrão de Brasília),The main experiment item,yes,0,0,/Users/marcelarruda/Documents/OpenSesame,0,0,0,no,mono,no,18,no,white,no,no,768,39690,3.6.1,psycho,psycho,osweb,1.3.13,2100,42485,0,q,q,None,lalt,space,space,None,None,None,None,lalt,space,q,q,p,p,500,2192,3435,2984,500,500,517,500,2550,6841,343,192,196,253,2,psycho,1160,1920,24,1200,24,0,0,1920,1629075040449,1024,2,48000,-16,bissec_temp,0,even,Win32,500,500,78,76018,167666,23972,44123,74016,23455,167165,42121,73511,22944,166958,41606,78,78,78,78,24696,44846,24689,44839,76285,168016,24172,44323,2271,76809,167666,23972,44123,76018,76799,168529,New experiment,1,343,1,yes,1366
100,100,274,274,black,no,Mozilla,Netscape,"5.0 (Windows NT 10.0; Win64; x64) AppleWebKit/537.36 (KHTML, like Gecko) Chrome/92.0.4515.131 Safari/537.36 Edg/92.0.902.73",psycho,psycho,psycho,0,curto,uniform,1,1,1,1,1,0,0,9,38,4,4,9,4,38,4,0,9,4,38,4,0,0,0,0,0,0,4,4,38,9,38,4,4,0,0,0,38,4,4,9,9,38,4,38,4,9,15-07-21,16-07-21,21:50:29,Sun Aug 15 2021 21:50:29 GMT-0300 (Horário Padrão de Brasília),The main experiment item,yes,0,0,/Users/marcelarruda/Documents/OpenSesame,0,0,0,no,mono,no,18,no,white,no,no,768,39690,3.6.1,psycho,psycho,osweb,1.3.13,2100,42485,0,q,p,None,lalt,space,space,None,None,None,None,lalt,space,p,q,p,p,517,2192,3435,2984,500,517,517,500,2550,6841,274,192,196,253,2,psycho,1160,1920,24,1200,24,0,0,1920,1629075040449,1024,2,48000,-16,bissec_temp,0,even,Win32,500,1260,78,76018,170018,23972,44123,74016,23455,168750,42121,73511,22944,168538,41606,78,78,78,78,24696,44846,24689,44839,76285,170301,24172,44323,2271,76809,170018,23972,44123,76018,76799,170820,New experiment,1,274,1,yes,1366
100,100,545,545,black,no,Mozilla,Netscape,"5.0 (Windows NT 10.0; Win64; x64) AppleWebKit/537.36 (KHTML, like Gecko) Chrome/92.0.4515.131 Safari/537.36 Edg/92.0.902.73",psycho,psycho,psycho,0,curto,uniform,1,1,1,1,1,0,0,9,39,4,4,9,4,39,4,0,9,4,39,4,0,0,0,0,0,0,4,4,39,9,39,4,4,0,0,0,39,4,4,9,9,39,4,39,4,9,15-07-21,16-07-21,21:50:29,Sun Aug 15 2021 21:50:29 GMT-0300 (Horário Padrão de Brasília),The main experiment item,yes,0,0,/Users/marcelarruda/Documents/OpenSesame,0,0,0,no,mono,no,18,no,white,no,no,768,39690,3.6.1,psycho,psycho,osweb,1.3.13,2100,42485,0,q,q,None,lalt,space,space,None,None,None,None,lalt,space,q,q,p,p,500,2192,3435,2984,500,500,517,500,2550,6841,545,192,196,253,2,psycho,1160,1920,24,1200,24,0,0,1920,1629075040449,1024,2,48000,-16,bissec_temp,0,even,Win32,500,1000,78,76018,172036,23972,44123,74016,23455,171035,42121,73511,22944,170831,41606,78,78,78,78,24696,44846,24689,44839,76285,172586,24172,44323,2271,76809,172036,23972,44123,76018,76799,173100,New experiment,1,545,1,yes,1366
100,100,230,230,black,no,Mozilla,Netscape,"5.0 (Windows NT 10.0; Win64; x64) AppleWebKit/537.36 (KHTML, like Gecko) Chrome/92.0.4515.131 Safari/537.36 Edg/92.0.902.73",psycho,psycho,psycho,0,curto,uniform,1,1,1,1,1,0,0,9,40,4,4,9,4,40,4,0,9,4,40,4,0,0,0,0,0,0,4,4,40,9,40,4,4,0,0,0,40,4,4,9,9,40,4,40,4,9,15-07-21,16-07-21,21:50:29,Sun Aug 15 2021 21:50:29 GMT-0300 (Horário Padrão de Brasília),The main experiment item,yes,0,0,/Users/marcelarruda/Documents/OpenSesame,0,0,0,no,mono,no,18,no,white,no,no,768,39690,3.6.1,psycho,psycho,osweb,1.3.13,2100,42485,0,q,p,None,lalt,space,space,None,None,None,None,lalt,space,p,q,p,p,500,2192,3435,2984,500,500,517,500,2550,6841,230,192,196,253,2,psycho,1160,1920,24,1200,24,0,0,1920,1629075040449,1024,2,48000,-16,bissec_temp,0,even,Win32,500,1587,78,76018,174922,23972,44123,74016,23455,173320,42121,73511,22944,173108,41606,78,78,78,78,24696,44846,24689,44839,76285,175155,24172,44323,2271,76809,174922,23972,44123,76018,76799,175669,New experiment,1,230,1,yes,1366
100,100,228,228,black,no,Mozilla,Netscape,"5.0 (Windows NT 10.0; Win64; x64) AppleWebKit/537.36 (KHTML, like Gecko) Chrome/92.0.4515.131 Safari/537.36 Edg/92.0.902.73",psycho,psycho,psycho,0,curto,uniform,1,1,1,1,1,0,0,9,41,4,4,9,4,41,4,0,9,4,41,4,0,0,0,0,0,0,4,4,41,9,41,4,4,0,0,0,41,4,4,9,9,41,4,41,4,9,15-07-21,16-07-21,21:50:29,Sun Aug 15 2021 21:50:29 GMT-0300 (Horário Padrão de Brasília),The main experiment item,yes,0,0,/Users/marcelarruda/Documents/OpenSesame,0,0,0,no,mono,no,18,no,white,no,no,768,39690,3.6.1,psycho,psycho,osweb,1.3.13,2100,42485,0,q,p,None,lalt,space,space,None,None,None,None,lalt,space,p,q,p,p,500,2192,3435,2984,500,500,517,500,2550,6841,228,192,196,253,2,psycho,1160,1920,24,1200,24,0,0,1920,1629075040449,1024,2,48000,-16,bissec_temp,0,even,Win32,500,2000,78,76018,177891,23972,44123,74016,23455,175890,42121,73511,22944,175678,41606,78,78,78,78,24696,44846,24689,44839,76285,178125,24172,44323,2271,76809,177891,23972,44123,76018,76799,178640,New experiment,1,228,1,yes,1366
100,100,379,379,black,no,Mozilla,Netscape,"5.0 (Windows NT 10.0; Win64; x64) AppleWebKit/537.36 (KHTML, like Gecko) Chrome/92.0.4515.131 Safari/537.36 Edg/92.0.902.73",psycho,psycho,psycho,0,curto,uniform,1,1,1,1,1,0,0,9,42,4,4,9,4,42,4,0,9,4,42,4,0,0,0,0,0,0,4,4,42,9,42,4,4,0,0,0,42,4,4,9,9,42,4,42,4,9,15-07-21,16-07-21,21:50:29,Sun Aug 15 2021 21:50:29 GMT-0300 (Horário Padrão de Brasília),The main experiment item,yes,0,0,/Users/marcelarruda/Documents/OpenSesame,0,0,0,no,mono,no,18,no,white,no,no,768,39690,3.6.1,psycho,psycho,osweb,1.3.13,2100,42485,0,q,q,None,lalt,space,space,None,None,None,None,lalt,space,q,q,p,p,500,2192,3435,2984,500,500,517,500,2550,6841,379,192,196,253,2,psycho,1160,1920,24,1200,24,0,0,1920,1629075040449,1024,2,48000,-16,bissec_temp,0,even,Win32,500,793.5,78,76018,179660,23972,44123,74016,23455,178859,42121,73511,22944,178649,41606,78,78,78,78,24696,44846,24689,44839,76285,180043,24172,44323,2271,76809,179660,23972,44123,76018,76799,180560,New experiment,1,379,1,yes,1366
100,100,395,395,black,no,Mozilla,Netscape,"5.0 (Windows NT 10.0; Win64; x64) AppleWebKit/537.36 (KHTML, like Gecko) Chrome/92.0.4515.131 Safari/537.36 Edg/92.0.902.73",psycho,psycho,psycho,0,curto,uniform,1,1,1,1,1,0,0,9,43,4,4,9,4,43,4,0,9,4,43,4,0,0,0,0,0,0,4,4,43,9,43,4,4,0,0,0,43,4,4,9,9,43,4,43,4,9,15-07-21,16-07-21,21:50:29,Sun Aug 15 2021 21:50:29 GMT-0300 (Horário Padrão de Brasília),The main experiment item,yes,0,0,/Users/marcelarruda/Documents/OpenSesame,0,0,0,no,mono,no,18,no,white,no,no,768,39690,3.6.1,psycho,psycho,osweb,1.3.13,2100,42485,0,q,q,None,lalt,space,space,None,None,None,None,lalt,space,q,q,p,p,517,2192,3435,2984,500,517,517,500,2550,6841,395,192,196,253,2,psycho,1160,1920,24,1200,24,0,0,1920,1629075040449,1024,2,48000,-16,bissec_temp,0,even,Win32,500,793.5,78,76018,181578,23972,44123,74016,23455,180778,42121,73511,22944,180568,41606,78,78,78,78,24696,44846,24689,44839,76285,181978,24172,44323,2271,76809,181578,23972,44123,76018,76799,182499,New experiment,1,395,1,yes,1366
100,100,250,250,black,no,Mozilla,Netscape,"5.0 (Windows NT 10.0; Win64; x64) AppleWebKit/537.36 (KHTML, like Gecko) Chrome/92.0.4515.131 Safari/537.36 Edg/92.0.902.73",psycho,psycho,psycho,0,curto,uniform,1,1,1,1,1,0,0,9,44,4,4,9,4,44,4,0,9,4,44,4,0,0,0,0,0,0,4,4,44,9,44,4,4,0,0,0,44,4,4,9,9,44,4,44,4,9,15-07-21,16-07-21,21:50:29,Sun Aug 15 2021 21:50:29 GMT-0300 (Horário Padrão de Brasília),The main experiment item,yes,0,0,/Users/marcelarruda/Documents/OpenSesame,0,0,0,no,mono,no,18,no,white,no,no,768,39690,3.6.1,psycho,psycho,osweb,1.3.13,2100,42485,0,q,q,None,lalt,space,space,None,None,None,None,lalt,space,q,q,p,p,518,2192,3435,2984,500,518,517,500,2550,6841,250,192,196,253,2,psycho,1160,1920,24,1200,24,0,0,1920,1629075040449,1024,2,48000,-16,bissec_temp,0,even,Win32,500,630,78,76018,183346,23972,44123,74016,23455,182714,42121,73511,22944,182507,41606,78,78,78,78,24696,44846,24689,44839,76285,183612,24172,44323,2271,76809,183346,23972,44123,76018,76799,184130,New experiment,1,250,1,yes,1366
100,100,241,241,black,no,Mozilla,Netscape,"5.0 (Windows NT 10.0; Win64; x64) AppleWebKit/537.36 (KHTML, like Gecko) Chrome/92.0.4515.131 Safari/537.36 Edg/92.0.902.73",psycho,psycho,psycho,0,curto,uniform,1,1,1,1,1,0,0,9,45,4,4,9,4,45,4,0,9,4,45,4,0,0,0,0,0,0,4,4,45,9,45,4,4,0,0,0,45,4,4,9,9,45,4,45,4,9,15-07-21,16-07-21,21:50:29,Sun Aug 15 2021 21:50:29 GMT-0300 (Horário Padrão de Brasília),The main experiment item,yes,0,0,/Users/marcelarruda/Documents/OpenSesame,0,0,0,no,mono,no,18,no,white,no,no,768,39690,3.6.1,psycho,psycho,osweb,1.3.13,2100,42485,0,q,q,None,lalt,space,space,None,None,None,None,lalt,space,q,q,p,p,518,2192,3435,2984,500,518,517,500,2550,6841,241,192,196,253,2,psycho,1160,1920,24,1200,24,0,0,1920,1629075040449,1024,2,48000,-16,bissec_temp,0,even,Win32,500,630,78,76018,184981,23972,44123,74016,23455,184347,42121,73511,22944,184138,41606,78,78,78,78,24696,44846,24689,44839,76285,185230,24172,44323,2271,76809,184981,23972,44123,76018,76799,185750,New experiment,1,241,1,yes,1366
100,100,334,334,black,no,Mozilla,Netscape,"5.0 (Windows NT 10.0; Win64; x64) AppleWebKit/537.36 (KHTML, like Gecko) Chrome/92.0.4515.131 Safari/537.36 Edg/92.0.902.73",psycho,psycho,psycho,0,curto,uniform,1,1,1,1,1,0,0,9,46,4,4,9,4,46,4,0,9,4,46,4,0,0,0,0,0,0,4,4,46,9,46,4,4,0,0,0,46,4,4,9,9,46,4,46,4,9,15-07-21,16-07-21,21:50:29,Sun Aug 15 2021 21:50:29 GMT-0300 (Horário Padrão de Brasília),The main experiment item,yes,0,0,/Users/marcelarruda/Documents/OpenSesame,0,0,0,no,mono,no,18,no,white,no,no,768,39690,3.6.1,psycho,psycho,osweb,1.3.13,2100,42485,0,q,q,None,lalt,space,space,None,None,None,None,lalt,space,q,q,p,p,517,2192,3435,2984,500,517,517,500,2550,6841,334,192,196,253,2,psycho,1160,1920,24,1200,24,0,0,1920,1629075040449,1024,2,48000,-16,bissec_temp,0,even,Win32,500,630,78,76018,186599,23972,44123,74016,23455,185965,42121,73511,22944,185760,41606,78,78,78,78,24696,44846,24689,44839,76285,186949,24172,44323,2271,76809,186599,23972,44123,76018,76799,187470,New experiment,1,334,1,yes,1366
0,0,425,425,black,no,Mozilla,Netscape,"5.0 (Windows NT 10.0; Win64; x64) AppleWebKit/537.36 (KHTML, like Gecko) Chrome/92.0.4515.131 Safari/537.36 Edg/92.0.902.73",psycho,psycho,psycho,0,curto,uniform,0,0,1,1,1,0,0,9,47,4,4,9,4,47,4,0,9,4,47,4,0,0,0,0,0,0,4,4,47,9,47,4,4,0,0,0,47,4,4,9,9,47,4,47,4,9,15-07-21,16-07-21,21:50:29,Sun Aug 15 2021 21:50:29 GMT-0300 (Horário Padrão de Brasília),The main experiment item,yes,0,0,/Users/marcelarruda/Documents/OpenSesame,0,0,0,no,mono,no,18,no,white,no,no,768,39690,3.6.1,psycho,psycho,osweb,1.3.13,2100,42485,0,q,q,None,lalt,space,space,None,None,None,None,lalt,space,p,q,p,p,501,2192,3435,2984,500,501,517,500,2550,6841,425,192,196,253,2,psycho,1160,1920,24,1200,24,0,0,1920,1629075040449,1024,2,48000,-16,bissec_temp,0,even,Win32,500,1000,78,76018,188684,23972,44123,74016,23455,187683,42121,73511,22944,187478,41606,78,78,78,78,24696,44846,24689,44839,76285,189117,24172,44323,2271,76809,188684,23972,44123,76018,76799,189630,New experiment,0,425,1,yes,1366
100,100,264,264,black,no,Mozilla,Netscape,"5.0 (Windows NT 10.0; Win64; x64) AppleWebKit/537.36 (KHTML, like Gecko) Chrome/92.0.4515.131 Safari/537.36 Edg/92.0.902.73",psycho,psycho,psycho,0,curto,uniform,1,1,1,1,1,0,0,9,48,4,4,9,4,48,4,0,9,4,48,4,0,0,0,0,0,0,4,4,48,9,48,4,4,0,0,0,48,4,4,9,9,48,4,48,4,9,15-07-21,16-07-21,21:50:29,Sun Aug 15 2021 21:50:29 GMT-0300 (Horário Padrão de Brasília),The main experiment item,yes,0,0,/Users/marcelarruda/Documents/OpenSesame,0,0,0,no,mono,no,18,no,white,no,no,768,39690,3.6.1,psycho,psycho,osweb,1.3.13,2100,42485,0,q,q,None,lalt,space,space,None,None,None,None,lalt,space,q,q,p,p,501,2192,3435,2984,500,501,517,500,2550,6841,264,192,196,253,2,psycho,1160,1920,24,1200,24,0,0,1920,1629075040449,1024,2,48000,-16,bissec_temp,0,even,Win32,500,500,78,76018,190369,23972,44123,74016,23455,189852,42121,73511,22944,189639,41606,78,78,78,78,24696,44846,24689,44839,76285,190635,24172,44323,2271,76809,190369,23972,44123,76018,76799,191150,New experiment,1,264,1,yes,1366
100,100,430,430,black,no,Mozilla,Netscape,"5.0 (Windows NT 10.0; Win64; x64) AppleWebKit/537.36 (KHTML, like Gecko) Chrome/92.0.4515.131 Safari/537.36 Edg/92.0.902.73",psycho,psycho,psycho,0,curto,uniform,1,1,1,1,1,0,0,9,49,4,4,9,4,49,4,0,9,4,49,4,0,0,0,0,0,0,4,4,49,9,49,4,4,0,0,0,49,4,4,9,9,49,4,49,4,9,15-07-21,16-07-21,21:50:29,Sun Aug 15 2021 21:50:29 GMT-0300 (Horário Padrão de Brasília),The main experiment item,yes,0,0,/Users/marcelarruda/Documents/OpenSesame,0,0,0,no,mono,no,18,no,white,no,no,768,39690,3.6.1,psycho,psycho,osweb,1.3.13,2100,42485,0,q,q,None,lalt,space,space,None,None,None,None,lalt,space,q,q,p,p,500,2192,3435,2984,500,500,517,500,2550,6841,430,192,196,253,2,psycho,1160,1920,24,1200,24,0,0,1920,1629075040449,1024,2,48000,-16,bissec_temp,0,even,Win32,500,793.5,78,76018,192170,23972,44123,74016,23455,191370,42121,73511,22944,191159,41606,78,78,78,78,24696,44846,24689,44839,76285,192604,24172,44323,2271,76809,192170,23972,44123,76018,76799,193120,New experiment,1,430,1,yes,1366
100,100,286,286,black,no,Mozilla,Netscape,"5.0 (Windows NT 10.0; Win64; x64) AppleWebKit/537.36 (KHTML, like Gecko) Chrome/92.0.4515.131 Safari/537.36 Edg/92.0.902.73",psycho,psycho,psycho,0,curto,uniform,1,1,1,1,1,0,0,9,50,4,4,9,4,50,4,0,9,4,50,4,0,0,0,0,0,0,4,4,50,9,50,4,4,0,0,0,50,4,4,9,9,50,4,50,4,9,15-07-21,16-07-21,21:50:29,Sun Aug 15 2021 21:50:29 GMT-0300 (Horário Padrão de Brasília),The main experiment item,yes,0,0,/Users/marcelarruda/Documents/OpenSesame,0,0,0,no,mono,no,18,no,white,no,no,768,39690,3.6.1,psycho,psycho,osweb,1.3.13,2100,42485,0,q,q,None,lalt,space,space,None,None,None,None,lalt,space,q,q,p,p,517,2192,3435,2984,500,517,517,500,2550,6841,286,192,196,253,2,psycho,1160,1920,24,1200,24,0,0,1920,1629075040449,1024,2,48000,-16,bissec_temp,0,even,Win32,500,793.5,78,76018,194139,23972,44123,74016,23455,193338,42121,73511,22944,193129,41606,78,78,78,78,24696,44846,24689,44839,76285,194439,24172,44323,2271,76809,194139,23972,44123,76018,76799,194959,New experiment,1,286,1,yes,1366
100,100,229,229,black,no,Mozilla,Netscape,"5.0 (Windows NT 10.0; Win64; x64) AppleWebKit/537.36 (KHTML, like Gecko) Chrome/92.0.4515.131 Safari/537.36 Edg/92.0.902.73",psycho,psycho,psycho,0,curto,uniform,1,1,1,1,1,0,0,9,51,4,4,9,4,51,4,0,9,4,51,4,0,0,0,0,0,0,4,4,51,9,51,4,4,0,0,0,51,4,4,9,9,51,4,51,4,9,15-07-21,16-07-21,21:50:29,Sun Aug 15 2021 21:50:29 GMT-0300 (Horário Padrão de Brasília),The main experiment item,yes,0,0,/Users/marcelarruda/Documents/OpenSesame,0,0,0,no,mono,no,18,no,white,no,no,768,39690,3.6.1,psycho,psycho,osweb,1.3.13,2100,42485,0,q,p,None,lalt,space,space,None,None,None,None,lalt,space,p,q,p,p,500,2192,3435,2984,500,500,517,500,2550,6841,229,192,196,253,2,psycho,1160,1920,24,1200,24,0,0,1920,1629075040449,1024,2,48000,-16,bissec_temp,0,even,Win32,500,1587,78,76018,196775,23972,44123,74016,23455,195173,42121,73511,22944,194967,41606,78,78,78,78,24696,44846,24689,44839,76285,197008,24172,44323,2271,76809,196775,23972,44123,76018,76799,197520,New experiment,1,229,1,yes,1366
100,100,234,234,black,no,Mozilla,Netscape,"5.0 (Windows NT 10.0; Win64; x64) AppleWebKit/537.36 (KHTML, like Gecko) Chrome/92.0.4515.131 Safari/537.36 Edg/92.0.902.73",psycho,psycho,psycho,0,curto,uniform,1,1,1,1,1,0,0,9,52,4,4,9,4,52,4,0,9,4,52,4,0,0,0,0,0,0,4,4,52,9,52,4,4,0,0,0,52,4,4,9,9,52,4,52,4,9,15-07-21,16-07-21,21:50:29,Sun Aug 15 2021 21:50:29 GMT-0300 (Horário Padrão de Brasília),The main experiment item,yes,0,0,/Users/marcelarruda/Documents/OpenSesame,0,0,0,no,mono,no,18,no,white,no,no,768,39690,3.6.1,psycho,psycho,osweb,1.3.13,2100,42485,0,q,p,None,lalt,space,space,None,None,None,None,lalt,space,p,q,p,p,517,2192,3435,2984,500,517,517,500,2550,6841,234,192,196,253,2,psycho,1160,1920,24,1200,24,0,0,1920,1629075040449,1024,2,48000,-16,bissec_temp,0,even,Win32,500,1260,78,76018,199011,23972,44123,74016,23455,197742,42121,73511,22944,197529,41606,78,78,78,78,24696,44846,24689,44839,76285,199260,24172,44323,2271,76809,199011,23972,44123,76018,76799,199779,New experiment,1,234,1,yes,1366
100,100,203,203,black,no,Mozilla,Netscape,"5.0 (Windows NT 10.0; Win64; x64) AppleWebKit/537.36 (KHTML, like Gecko) Chrome/92.0.4515.131 Safari/537.36 Edg/92.0.902.73",psycho,psycho,psycho,0,curto,uniform,1,1,1,1,1,0,0,9,53,4,4,9,4,53,4,0,9,4,53,4,0,0,0,0,0,0,4,4,53,9,53,4,4,0,0,0,53,4,4,9,9,53,4,53,4,9,15-07-21,16-07-21,21:50:29,Sun Aug 15 2021 21:50:29 GMT-0300 (Horário Padrão de Brasília),The main experiment item,yes,0,0,/Users/marcelarruda/Documents/OpenSesame,0,0,0,no,mono,no,18,no,white,no,no,768,39690,3.6.1,psycho,psycho,osweb,1.3.13,2100,42485,0,q,p,None,lalt,space,space,None,None,None,None,lalt,space,p,q,p,p,517,2192,3435,2984,500,517,517,500,2550,6841,203,192,196,253,2,psycho,1160,1920,24,1200,24,0,0,1920,1629075040449,1024,2,48000,-16,bissec_temp,0,even,Win32,500,2000,78,76018,201996,23972,44123,74016,23455,199994,42121,73511,22944,199787,41606,78,78,78,78,24696,44846,24689,44839,76285,202212,24172,44323,2271,76809,201996,23972,44123,76018,76799,202730,New experiment,1,203,1,yes,1366
100,100,358,358,black,no,Mozilla,Netscape,"5.0 (Windows NT 10.0; Win64; x64) AppleWebKit/537.36 (KHTML, like Gecko) Chrome/92.0.4515.131 Safari/537.36 Edg/92.0.902.73",psycho,psycho,psycho,0,curto,uniform,1,1,1,1,1,0,0,9,54,4,4,9,4,54,4,0,9,4,54,4,0,0,0,0,0,0,4,4,54,9,54,4,4,0,0,0,54,4,4,9,9,54,4,54,4,9,15-07-21,16-07-21,21:50:29,Sun Aug 15 2021 21:50:29 GMT-0300 (Horário Padrão de Brasília),The main experiment item,yes,0,0,/Users/marcelarruda/Documents/OpenSesame,0,0,0,no,mono,no,18,no,white,no,no,768,39690,3.6.1,psycho,psycho,osweb,1.3.13,2100,42485,0,q,q,None,lalt,space,space,None,None,None,None,lalt,space,q,q,p,p,500,2192,3435,2984,500,500,517,500,2550,6841,358,192,196,253,2,psycho,1160,1920,24,1200,24,0,0,1920,1629075040449,1024,2,48000,-16,bissec_temp,0,even,Win32,500,630,78,76018,203581,23972,44123,74016,23455,202947,42121,73511,22944,202738,41606,78,78,78,78,24696,44846,24689,44839,76285,203947,24172,44323,2271,76809,203581,23972,44123,76018,76799,204459,New experiment,1,358,1,yes,1366
100,100,277,277,black,no,Mozilla,Netscape,"5.0 (Windows NT 10.0; Win64; x64) AppleWebKit/537.36 (KHTML, like Gecko) Chrome/92.0.4515.131 Safari/537.36 Edg/92.0.902.73",psycho,psycho,psycho,0,curto,uniform,1,1,1,1,1,0,0,9,55,4,4,9,4,55,4,0,9,4,55,4,0,0,0,0,0,0,4,4,55,9,55,4,4,0,0,0,55,4,4,9,9,55,4,55,4,9,15-07-21,16-07-21,21:50:29,Sun Aug 15 2021 21:50:29 GMT-0300 (Horário Padrão de Brasília),The main experiment item,yes,0,0,/Users/marcelarruda/Documents/OpenSesame,0,0,0,no,mono,no,18,no,white,no,no,768,39690,3.6.1,psycho,psycho,osweb,1.3.13,2100,42485,0,q,q,None,lalt,space,space,None,None,None,None,lalt,space,q,q,p,p,517,2192,3435,2984,500,517,517,500,2550,6841,277,192,196,253,2,psycho,1160,1920,24,1200,24,0,0,1920,1629075040449,1024,2,48000,-16,bissec_temp,0,even,Win32,500,500,78,76018,205199,23972,44123,74016,23455,204682,42121,73511,22944,204469,41606,78,78,78,78,24696,44846,24689,44839,76285,205482,24172,44323,2271,76809,205199,23972,44123,76018,76799,206000,New experiment,1,277,1,yes,1366
100,100,117,117,black,no,Mozilla,Netscape,"5.0 (Windows NT 10.0; Win64; x64) AppleWebKit/537.36 (KHTML, like Gecko) Chrome/92.0.4515.131 Safari/537.36 Edg/92.0.902.73",psycho,psycho,psycho,0,curto,uniform,1,1,1,1,1,0,0,9,56,4,4,9,4,56,4,0,9,4,56,4,0,0,0,0,0,0,4,4,56,9,56,4,4,0,0,0,56,4,4,9,9,56,4,56,4,9,15-07-21,16-07-21,21:50:29,Sun Aug 15 2021 21:50:29 GMT-0300 (Horário Padrão de Brasília),The main experiment item,yes,0,0,/Users/marcelarruda/Documents/OpenSesame,0,0,0,no,mono,no,18,no,white,no,no,768,39690,3.6.1,psycho,psycho,osweb,1.3.13,2100,42485,0,q,q,None,lalt,space,space,None,None,None,None,lalt,space,q,q,p,p,517,2192,3435,2984,500,517,517,500,2550,6841,117,192,196,253,2,psycho,1160,1920,24,1200,24,0,0,1920,1629075040449,1024,2,48000,-16,bissec_temp,0,even,Win32,500,793.5,78,76018,207017,23972,44123,74016,23455,206216,42121,73511,22944,206008,41606,78,78,78,78,24696,44846,24689,44839,76285,207150,24172,44323,2271,76809,207017,23972,44123,76018,76799,207670,New experiment,1,117,1,yes,1366
100,100,242,242,black,no,Mozilla,Netscape,"5.0 (Windows NT 10.0; Win64; x64) AppleWebKit/537.36 (KHTML, like Gecko) Chrome/92.0.4515.131 Safari/537.36 Edg/92.0.902.73",psycho,psycho,psycho,0,curto,uniform,1,1,1,1,1,0,0,9,57,4,4,9,4,57,4,0,9,4,57,4,0,0,0,0,0,0,4,4,57,9,57,4,4,0,0,0,57,4,4,9,9,57,4,57,4,9,15-07-21,16-07-21,21:50:29,Sun Aug 15 2021 21:50:29 GMT-0300 (Horário Padrão de Brasília),The main experiment item,yes,0,0,/Users/marcelarruda/Documents/OpenSesame,0,0,0,no,mono,no,18,no,white,no,no,768,39690,3.6.1,psycho,psycho,osweb,1.3.13,2100,42485,0,q,q,None,lalt,space,space,None,None,None,None,lalt,space,q,q,p,p,500,2192,3435,2984,500,500,517,500,2550,6841,242,192,196,253,2,psycho,1160,1920,24,1200,24,0,0,1920,1629075040449,1024,2,48000,-16,bissec_temp,0,even,Win32,500,793.5,78,76018,208685,23972,44123,74016,23455,207885,42121,73511,22944,207680,41606,78,78,78,78,24696,44846,24689,44839,76285,208935,24172,44323,2271,76809,208685,23972,44123,76018,76799,209450,New experiment,1,242,1,yes,1366
100,100,234,234,black,no,Mozilla,Netscape,"5.0 (Windows NT 10.0; Win64; x64) AppleWebKit/537.36 (KHTML, like Gecko) Chrome/92.0.4515.131 Safari/537.36 Edg/92.0.902.73",psycho,psycho,psycho,0,curto,uniform,1,1,1,1,1,0,0,9,58,4,4,9,4,58,4,0,9,4,58,4,0,0,0,0,0,0,4,4,58,9,58,4,4,0,0,0,58,4,4,9,9,58,4,58,4,9,15-07-21,16-07-21,21:50:29,Sun Aug 15 2021 21:50:29 GMT-0300 (Horário Padrão de Brasília),The main experiment item,yes,0,0,/Users/marcelarruda/Documents/OpenSesame,0,0,0,no,mono,no,18,no,white,no,no,768,39690,3.6.1,psycho,psycho,osweb,1.3.13,2100,42485,0,q,p,None,lalt,space,space,None,None,None,None,lalt,space,p,q,p,p,518,2192,3435,2984,500,518,517,500,2550,6841,234,192,196,253,2,psycho,1160,1920,24,1200,24,0,0,1920,1629075040449,1024,2,48000,-16,bissec_temp,0,even,Win32,500,1587,78,76018,211271,23972,44123,74016,23455,209670,42121,73511,22944,209458,41606,78,78,78,78,24696,44846,24689,44839,76285,211520,24172,44323,2271,76809,211271,23972,44123,76018,76799,212040,New experiment,1,234,1,yes,1366
100,100,220,220,black,no,Mozilla,Netscape,"5.0 (Windows NT 10.0; Win64; x64) AppleWebKit/537.36 (KHTML, like Gecko) Chrome/92.0.4515.131 Safari/537.36 Edg/92.0.902.73",psycho,psycho,psycho,0,curto,uniform,1,1,1,1,1,0,0,9,59,4,4,9,4,59,4,0,9,4,59,4,0,0,0,0,0,0,4,4,59,9,59,4,4,0,0,0,59,4,4,9,9,59,4,59,4,9,15-07-21,16-07-21,21:50:29,Sun Aug 15 2021 21:50:29 GMT-0300 (Horário Padrão de Brasília),The main experiment item,yes,0,0,/Users/marcelarruda/Documents/OpenSesame,0,0,0,no,mono,no,18,no,white,no,no,768,39690,3.6.1,psycho,psycho,osweb,1.3.13,2100,42485,0,q,p,None,lalt,space,space,None,None,None,None,lalt,space,p,q,p,p,500,2192,3435,2984,500,500,517,500,2550,6841,220,192,196,253,2,psycho,1160,1920,24,1200,24,0,0,1920,1629075040449,1024,2,48000,-16,bissec_temp,0,even,Win32,500,1260,78,76018,213522,23972,44123,74016,23455,212255,42121,73511,22944,212048,41606,78,78,78,78,24696,44846,24689,44839,76285,213756,24172,44323,2271,76809,213522,23972,44123,76018,76799,214270,New experiment,1,220,1,yes,1366
100,100,230,230,black,no,Mozilla,Netscape,"5.0 (Windows NT 10.0; Win64; x64) AppleWebKit/537.36 (KHTML, like Gecko) Chrome/92.0.4515.131 Safari/537.36 Edg/92.0.902.73",psycho,psycho,psycho,0,curto,uniform,1,1,1,1,1,0,0,9,60,4,4,9,4,60,4,0,9,4,60,4,0,0,0,0,0,0,4,4,60,9,60,4,4,0,0,0,60,4,4,9,9,60,4,60,4,9,15-07-21,16-07-21,21:50:29,Sun Aug 15 2021 21:50:29 GMT-0300 (Horário Padrão de Brasília),The main experiment item,yes,0,0,/Users/marcelarruda/Documents/OpenSesame,0,0,0,no,mono,no,18,no,white,no,no,768,39690,3.6.1,psycho,psycho,osweb,1.3.13,2100,42485,0,q,p,None,lalt,space,space,None,None,None,None,lalt,space,p,q,p,p,500,2192,3435,2984,500,500,517,500,2550,6841,230,192,196,253,2,psycho,1160,1920,24,1200,24,0,0,1920,1629075040449,1024,2,48000,-16,bissec_temp,0,even,Win32,500,1587,78,76018,216091,23972,44123,74016,23455,214490,42121,73511,22944,214279,41606,78,78,78,78,24696,44846,24689,44839,76285,216325,24172,44323,2271,76809,216091,23972,44123,76018,76799,216840,New experiment,1,230,1,yes,1366
100,100,252,252,black,no,Mozilla,Netscape,"5.0 (Windows NT 10.0; Win64; x64) AppleWebKit/537.36 (KHTML, like Gecko) Chrome/92.0.4515.131 Safari/537.36 Edg/92.0.902.73",psycho,psycho,psycho,0,curto,uniform,1,1,1,1,1,0,0,9,61,4,4,9,4,61,4,0,9,4,61,4,0,0,0,0,0,0,4,4,61,9,61,4,4,0,0,0,61,4,4,9,9,61,4,61,4,9,15-07-21,16-07-21,21:50:29,Sun Aug 15 2021 21:50:29 GMT-0300 (Horário Padrão de Brasília),The main experiment item,yes,0,0,/Users/marcelarruda/Documents/OpenSesame,0,0,0,no,mono,no,18,no,white,no,no,768,39690,3.6.1,psycho,psycho,osweb,1.3.13,2100,42485,0,q,p,None,lalt,space,space,None,None,None,None,lalt,space,p,q,p,p,501,2192,3435,2984,500,501,517,500,2550,6841,252,192,196,253,2,psycho,1160,1920,24,1200,24,0,0,1920,1629075040449,1024,2,48000,-16,bissec_temp,0,even,Win32,500,1587,78,76018,218660,23972,44123,74016,23455,217060,42121,73511,22944,216848,41606,78,78,78,78,24696,44846,24689,44839,76285,218927,24172,44323,2271,76809,218660,23972,44123,76018,76799,219440,New experiment,1,252,1,yes,1366
100,100,242,242,black,no,Mozilla,Netscape,"5.0 (Windows NT 10.0; Win64; x64) AppleWebKit/537.36 (KHTML, like Gecko) Chrome/92.0.4515.131 Safari/537.36 Edg/92.0.902.73",psycho,psycho,psycho,0,curto,uniform,1,1,1,1,1,0,0,9,62,4,4,9,4,62,4,0,9,4,62,4,0,0,0,0,0,0,4,4,62,9,62,4,4,0,0,0,62,4,4,9,9,62,4,62,4,9,15-07-21,16-07-21,21:50:29,Sun Aug 15 2021 21:50:29 GMT-0300 (Horário Padrão de Brasília),The main experiment item,yes,0,0,/Users/marcelarruda/Documents/OpenSesame,0,0,0,no,mono,no,18,no,white,no,no,768,39690,3.6.1,psycho,psycho,osweb,1.3.13,2100,42485,0,q,p,None,lalt,space,space,None,None,None,None,lalt,space,p,q,p,p,517,2192,3435,2984,500,517,517,500,2550,6841,242,192,196,253,2,psycho,1160,1920,24,1200,24,0,0,1920,1629075040449,1024,2,48000,-16,bissec_temp,0,even,Win32,500,2000,78,76018,221663,23972,44123,74016,23455,219661,42121,73511,22944,219450,41606,78,78,78,78,24696,44846,24689,44839,76285,221913,24172,44323,2271,76809,221663,23972,44123,76018,76799,222431,New experiment,1,242,1,yes,1366
100,100,322,322,black,no,Mozilla,Netscape,"5.0 (Windows NT 10.0; Win64; x64) AppleWebKit/537.36 (KHTML, like Gecko) Chrome/92.0.4515.131 Safari/537.36 Edg/92.0.902.73",psycho,psycho,psycho,0,curto,uniform,1,1,1,1,1,0,0,9,63,4,4,9,4,63,4,0,9,4,63,4,0,0,0,0,0,0,4,4,63,9,63,4,4,0,0,0,63,4,4,9,9,63,4,63,4,9,15-07-21,16-07-21,21:50:29,Sun Aug 15 2021 21:50:29 GMT-0300 (Horário Padrão de Brasília),The main experiment item,yes,0,0,/Users/marcelarruda/Documents/OpenSesame,0,0,0,no,mono,no,18,no,white,no,no,768,39690,3.6.1,psycho,psycho,osweb,1.3.13,2100,42485,0,q,q,None,lalt,space,space,None,None,None,None,lalt,space,q,q,p,p,500,2192,3435,2984,500,500,517,500,2550,6841,322,192,196,253,2,psycho,1160,1920,24,1200,24,0,0,1920,1629075040449,1024,2,48000,-16,bissec_temp,0,even,Win32,500,630,78,76018,223282,23972,44123,74016,23455,222647,42121,73511,22944,222438,41606,78,78,78,78,24696,44846,24689,44839,76285,223615,24172,44323,2271,76809,223282,23972,44123,76018,76799,224130,New experiment,1,322,1,yes,1366
100,100,236,236,black,no,Mozilla,Netscape,"5.0 (Windows NT 10.0; Win64; x64) AppleWebKit/537.36 (KHTML, like Gecko) Chrome/92.0.4515.131 Safari/537.36 Edg/92.0.902.73",psycho,psycho,psycho,0,curto,uniform,1,1,1,1,1,0,0,9,64,4,4,9,4,64,4,0,9,4,64,4,0,0,0,0,0,0,4,4,64,9,64,4,4,0,0,0,64,4,4,9,9,64,4,64,4,9,15-07-21,16-07-21,21:50:29,Sun Aug 15 2021 21:50:29 GMT-0300 (Horário Padrão de Brasília),The main experiment item,yes,0,0,/Users/marcelarruda/Documents/OpenSesame,0,0,0,no,mono,no,18,no,white,no,no,768,39690,3.6.1,psycho,psycho,osweb,1.3.13,2100,42485,0,q,q,None,lalt,space,space,None,None,None,None,lalt,space,q,q,p,p,499,2192,3435,2984,500,499,517,500,2550,6841,236,192,196,253,2,psycho,1160,1920,24,1200,24,0,0,1920,1629075040449,1024,2,48000,-16,bissec_temp,0,even,Win32,500,500,78,76018,224866,23972,44123,74016,23455,224349,42121,73511,22944,224138,41606,78,78,78,78,24696,44846,24689,44839,76285,225117,24172,44323,2271,76809,224866,23972,44123,76018,76799,225630,New experiment,1,236,1,yes,1366
100,100,304,304,black,no,Mozilla,Netscape,"5.0 (Windows NT 10.0; Win64; x64) AppleWebKit/537.36 (KHTML, like Gecko) Chrome/92.0.4515.131 Safari/537.36 Edg/92.0.902.73",psycho,psycho,psycho,0,curto,uniform,1,1,1,1,1,0,0,9,65,4,4,9,4,65,4,0,9,4,65,4,0,0,0,0,0,0,4,4,65,9,65,4,4,0,0,0,65,4,4,9,9,65,4,65,4,9,15-07-21,16-07-21,21:50:29,Sun Aug 15 2021 21:50:29 GMT-0300 (Horário Padrão de Brasília),The main experiment item,yes,0,0,/Users/marcelarruda/Documents/OpenSesame,0,0,0,no,mono,no,18,no,white,no,no,768,39690,3.6.1,psycho,psycho,osweb,1.3.13,2100,42485,0,q,q,None,lalt,space,space,None,None,None,None,lalt,space,q,q,p,p,517,2192,3435,2984,500,517,517,500,2550,6841,304,192,196,253,2,psycho,1160,1920,24,1200,24,0,0,1920,1629075040449,1024,2,48000,-16,bissec_temp,0,even,Win32,500,630,78,76018,226484,23972,44123,74016,23455,225851,42121,73511,22944,225640,41606,78,78,78,78,24696,44846,24689,44839,76285,226801,24172,44323,2271,76809,226484,23972,44123,76018,76799,227320,New experiment,1,304,1,yes,1366
100,100,239,239,black,no,Mozilla,Netscape,"5.0 (Windows NT 10.0; Win64; x64) AppleWebKit/537.36 (KHTML, like Gecko) Chrome/92.0.4515.131 Safari/537.36 Edg/92.0.902.73",psycho,psycho,psycho,0,curto,uniform,1,1,1,1,1,0,0,9,66,4,4,9,4,66,4,0,9,4,66,4,0,0,0,0,0,0,4,4,66,9,66,4,4,0,0,0,66,4,4,9,9,66,4,66,4,9,15-07-21,16-07-21,21:50:29,Sun Aug 15 2021 21:50:29 GMT-0300 (Horário Padrão de Brasília),The main experiment item,yes,0,0,/Users/marcelarruda/Documents/OpenSesame,0,0,0,no,mono,no,18,no,white,no,no,768,39690,3.6.1,psycho,psycho,osweb,1.3.13,2100,42485,0,q,q,None,lalt,space,space,None,None,None,None,lalt,space,q,q,p,p,517,2192,3435,2984,500,517,517,500,2550,6841,239,192,196,253,2,psycho,1160,1920,24,1200,24,0,0,1920,1629075040449,1024,2,48000,-16,bissec_temp,0,even,Win32,500,500,78,76018,228052,23972,44123,74016,23455,227535,42121,73511,22944,227328,41606,78,78,78,78,24696,44846,24689,44839,76285,228302,24172,44323,2271,76809,228052,23972,44123,76018,76799,228820,New experiment,1,239,1,yes,1366
100,100,267,267,black,no,Mozilla,Netscape,"5.0 (Windows NT 10.0; Win64; x64) AppleWebKit/537.36 (KHTML, like Gecko) Chrome/92.0.4515.131 Safari/537.36 Edg/92.0.902.73",psycho,psycho,psycho,0,curto,uniform,1,1,1,1,1,0,0,9,67,4,4,9,4,67,4,0,9,4,67,4,0,0,0,0,0,0,4,4,67,9,67,4,4,0,0,0,67,4,4,9,9,67,4,67,4,9,15-07-21,16-07-21,21:50:29,Sun Aug 15 2021 21:50:29 GMT-0300 (Horário Padrão de Brasília),The main experiment item,yes,0,0,/Users/marcelarruda/Documents/OpenSesame,0,0,0,no,mono,no,18,no,white,no,no,768,39690,3.6.1,psycho,psycho,osweb,1.3.13,2100,42485,0,q,p,None,lalt,space,space,None,None,None,None,lalt,space,p,q,p,p,499,2192,3435,2984,500,499,517,500,2550,6841,267,192,196,253,2,psycho,1160,1920,24,1200,24,0,0,1920,1629075040449,1024,2,48000,-16,bissec_temp,0,even,Win32,500,2000,78,76018,231038,23972,44123,74016,23455,229036,42121,73511,22944,228829,41606,78,78,78,78,24696,44846,24689,44839,76285,231306,24172,44323,2271,76809,231038,23972,44123,76018,76799,231820,New experiment,1,267,1,yes,1366
100,100,505,505,black,no,Mozilla,Netscape,"5.0 (Windows NT 10.0; Win64; x64) AppleWebKit/537.36 (KHTML, like Gecko) Chrome/92.0.4515.131 Safari/537.36 Edg/92.0.902.73",psycho,psycho,psycho,0,curto,uniform,1,1,1,1,1,0,0,9,68,4,4,9,4,68,4,0,9,4,68,4,0,0,0,0,0,0,4,4,68,9,68,4,4,0,0,0,68,4,4,9,9,68,4,68,4,9,15-07-21,16-07-21,21:50:29,Sun Aug 15 2021 21:50:29 GMT-0300 (Horário Padrão de Brasília),The main experiment item,yes,0,0,/Users/marcelarruda/Documents/OpenSesame,0,0,0,no,mono,no,18,no,white,no,no,768,39690,3.6.1,psycho,psycho,osweb,1.3.13,2100,42485,0,q,q,None,lalt,space,space,None,None,None,None,lalt,space,q,q,p,p,517,2192,3435,2984,500,517,517,500,2550,6841,505,192,196,253,2,psycho,1160,1920,24,1200,24,0,0,1920,1629075040449,1024,2,48000,-16,bissec_temp,0,even,Win32,500,630,78,76018,232673,23972,44123,74016,23455,232039,42121,73511,22944,231830,41606,78,78,78,78,24696,44846,24689,44839,76285,233190,24172,44323,2271,76809,232673,23972,44123,76018,76799,233710,New experiment,1,505,1,yes,1366
100,100,243,243,black,no,Mozilla,Netscape,"5.0 (Windows NT 10.0; Win64; x64) AppleWebKit/537.36 (KHTML, like Gecko) Chrome/92.0.4515.131 Safari/537.36 Edg/92.0.902.73",psycho,psycho,psycho,0,curto,uniform,1,1,1,1,1,0,0,9,69,4,4,9,4,69,4,0,9,4,69,4,0,0,0,0,0,0,4,4,69,9,69,4,4,0,0,0,69,4,4,9,9,69,4,69,4,9,15-07-21,16-07-21,21:50:29,Sun Aug 15 2021 21:50:29 GMT-0300 (Horário Padrão de Brasília),The main experiment item,yes,0,0,/Users/marcelarruda/Documents/OpenSesame,0,0,0,no,mono,no,18,no,white,no,no,768,39690,3.6.1,psycho,psycho,osweb,1.3.13,2100,42485,0,q,p,None,lalt,space,space,None,None,None,None,lalt,space,p,q,p,p,517,2192,3435,2984,500,517,517,500,2550,6841,243,192,196,253,2,psycho,1160,1920,24,1200,24,0,0,1920,1629075040449,1024,2,48000,-16,bissec_temp,0,even,Win32,500,1260,78,76018,235192,23972,44123,74016,23455,233924,42121,73511,22944,233718,41606,78,78,78,78,24696,44846,24689,44839,76285,235442,24172,44323,2271,76809,235192,23972,44123,76018,76799,235961,New experiment,1,243,1,yes,1366
